participant,block,trial,stim_pos,correct_key,response,rt,accuracy,score
001,1,1.0,1.0,s,s,0.7586459999438375,1.0,127.0
001,1,2.0,2.0,d,d,0.48282269993796945,1.0,142.0
001,1,3.0,1.0,s,s,0.3808769000461325,1.0,158.0
001,1,4.0,2.0,d,d,0.3781413999386132,1.0,174.0
001,1,5.0,3.0,f,f,0.48709640000015497,1.0,189.0
001,1,6.0,2.0,d,d,0.5297403000295162,1.0,203.0
001,1,7.0,0.0,a,a,0.4495145999826491,1.0,218.0
001,1,8.0,1.0,s,s,0.5143577000126243,1.0,232.0
001,1,9.0,1.0,s,s,0.3768059000140056,1.0,248.0
001,1,10.0,2.0,d,d,0.4381697999779135,1.0,263.0
001,1,11.0,3.0,f,f,0.38198060006834567,1.0,279.0
001,1,12.0,0.0,a,a,0.49123849999159575,1.0,294.0
001,1,13.0,3.0,f,f,0.46265530004166067,1.0,309.0
001,1,14.0,0.0,a,a,0.38721229997463524,1.0,325.0
001,1,15.0,0.0,a,a,0.3404461999889463,1.0,341.0
001,1,16.0,1.0,s,s,0.40018170000985265,1.0,356.0
001,1,17.0,3.0,f,f,0.36392609996255487,1.0,372.0
001,1,18.0,1.0,s,s,0.38267500000074506,1.0,388.0
001,1,19.0,2.0,d,d,0.6304504000581801,1.0,401.0
001,1,20.0,3.0,f,f,0.4291539000114426,1.0,416.0
001,1,21.0,3.0,f,f,0.40733029996044934,1.0,431.0
001,1,22.0,2.0,d,d,0.5682450999738649,1.0,445.0
001,1,23.0,0.0,a,a,0.4909272000659257,1.0,460.0
001,1,24.0,0.0,a,a,0.5502739000367001,1.0,474.0
001,1,25.0,3.0,f,f,0.4345271000638604,1.0,489.0
001,1,26.0,1.0,s,s,0.5101188999833539,1.0,503.0
001,1,27.0,1.0,s,s,0.43454100005328655,1.0,518.0
001,1,28.0,3.0,f,f,0.3831540000392124,1.0,534.0
001,1,29.0,0.0,a,a,0.41660779993981123,1.0,549.0
001,1,30.0,3.0,f,f,0.44495769997593015,1.0,564.0
001,1,31.0,0.0,a,a,0.4017179000657052,1.0,579.0
001,1,32.0,3.0,f,f,0.34315879992209375,1.0,595.0
001,1,33.0,0.0,a,a,0.330138299963437,1.0,611.0
001,1,34.0,2.0,d,d,0.6501567999366671,1.0,624.0
001,1,35.0,0.0,a,a,0.38661789998877794,1.0,640.0
001,1,36.0,2.0,d,d,0.6027089999988675,1.0,653.0
001,1,37.0,1.0,s,s,0.5004680000711232,1.0,667.0
001,1,38.0,1.0,s,s,0.444693100056611,1.0,682.0
001,1,39.0,0.0,a,a,0.3960587999317795,1.0,698.0
001,1,40.0,3.0,f,f,0.3943124000215903,1.0,714.0
001,1,41.0,2.0,d,d,0.5923685999587178,1.0,728.0
001,1,42.0,1.0,s,s,0.34976140002254397,1.0,744.0
001,1,43.0,2.0,d,d,0.5670059999683872,1.0,758.0
001,1,44.0,3.0,f,f,0.37747559999115765,1.0,774.0
001,1,45.0,1.0,s,s,0.61020659992937,1.0,787.0
001,1,46.0,3.0,f,f,0.45309789991006255,1.0,802.0
001,1,47.0,0.0,a,a,0.3494726999197155,1.0,818.0
001,1,48.0,1.0,s,s,0.6288649999769405,1.0,831.0
001,2,1.0,0.0,a,a,0.5352745000272989,1.0,845.0
001,2,2.0,2.0,d,d,0.7757118000881746,1.0,857.0
001,2,3.0,3.0,f,f,0.40371400001458824,1.0,872.0
001,2,4.0,1.0,s,s,0.3232124999631196,1.0,888.0
001,2,5.0,0.0,a,a,0.5026957000372931,1.0,902.0
001,2,6.0,3.0,f,f,0.39412309997715056,1.0,918.0
001,2,7.0,2.0,d,d,0.38475389999803156,1.0,934.0
001,2,8.0,1.0,s,s,0.547615599934943,1.0,948.0
001,2,9.0,3.0,f,f,0.39995889994315803,1.0,964.0
001,2,10.0,0.0,a,a,0.36123810010030866,1.0,980.0
001,2,11.0,1.0,s,s,0.3716169000836089,1.0,996.0
001,2,12.0,2.0,d,d,0.32765859994105995,1.0,1012.0
001,2,13.0,0.0,a,a,0.3826972000533715,1.0,1028.0
001,2,14.0,2.0,d,f,0.4487068000016734,0.0,1028.0
001,2,15.0,3.0,f,f,0.7006363999098539,1.0,1040.0
001,2,16.0,1.0,s,s,0.39632090006489307,1.0,1056.0
001,2,17.0,0.0,a,a,0.4485301999375224,1.0,1071.0
001,2,18.0,3.0,f,f,0.4251333000138402,1.0,1086.0
001,2,19.0,2.0,d,d,0.4094423999777064,1.0,1101.0
001,2,20.0,1.0,s,s,0.3943573000142351,1.0,1117.0
001,2,21.0,3.0,f,f,0.4325520000420511,1.0,1132.0
001,2,22.0,0.0,a,a,0.30522159999236465,1.0,1148.0
001,2,23.0,1.0,s,s,0.38833949994295835,1.0,1164.0
001,2,24.0,2.0,d,d,0.31703600008040667,1.0,1180.0
001,2,25.0,0.0,a,a,0.509960199939087,1.0,1194.0
001,2,26.0,2.0,d,d,0.4324821999762207,1.0,1209.0
001,2,27.0,3.0,f,f,0.3674674000358209,1.0,1225.0
001,2,28.0,1.0,s,s,0.3748719000723213,1.0,1241.0
001,2,29.0,0.0,a,a,0.3843833999708295,1.0,1257.0
001,2,30.0,3.0,f,f,0.4464016000274569,1.0,1272.0
001,2,31.0,2.0,d,d,0.3833472999976948,1.0,1288.0
001,2,32.0,1.0,s,s,0.37808279995806515,1.0,1304.0
001,2,33.0,3.0,f,f,0.47909170005004853,1.0,1319.0
001,2,34.0,0.0,a,a,0.3481122999219224,1.0,1335.0
001,2,35.0,1.0,s,s,0.4150837000925094,1.0,1350.0
001,2,36.0,2.0,d,d,0.405664199963212,1.0,1365.0
001,2,37.0,0.0,a,a,0.44783710001502186,1.0,1380.0
001,2,38.0,2.0,d,f,0.5788479000329971,0.0,1380.0
001,2,39.0,3.0,f,f,0.5936171000357717,1.0,1394.0
001,2,40.0,1.0,s,s,0.4363905000500381,1.0,1409.0
001,2,41.0,0.0,a,a,0.5044221999123693,1.0,1423.0
001,2,42.0,3.0,f,f,0.4986357999732718,1.0,1438.0
001,2,43.0,2.0,d,d,0.579370699939318,1.0,1452.0
001,2,44.0,1.0,s,s,0.37987220007926226,1.0,1468.0
001,2,45.0,3.0,f,f,0.3621878999983892,1.0,1484.0
001,2,46.0,0.0,a,a,0.34508340002503246,1.0,1500.0
001,2,47.0,1.0,s,s,0.39983470004517585,1.0,1516.0
001,2,48.0,2.0,d,d,0.39237310003954917,1.0,1532.0
001,3,1.0,0.0,a,a,0.4816301999380812,1.0,1547.0
001,3,2.0,2.0,d,d,0.5436002000933513,1.0,1561.0
001,3,3.0,3.0,f,f,0.4219829000066966,1.0,1576.0
001,3,4.0,1.0,s,s,0.3398566000396386,1.0,1592.0
001,3,5.0,0.0,a,a,0.37442969996482134,1.0,1608.0
001,3,6.0,3.0,f,f,0.4400706000160426,1.0,1623.0
001,3,7.0,2.0,d,d,0.3708100999938324,1.0,1639.0
001,3,8.0,1.0,s,s,0.3453770999331027,1.0,1655.0
001,3,9.0,3.0,f,f,0.48353700002189726,1.0,1670.0
001,3,10.0,0.0,a,a,0.3134985000360757,1.0,1686.0
001,3,11.0,1.0,s,s,0.41544140002224594,1.0,1701.0
001,3,12.0,2.0,d,d,0.35993389994837344,1.0,1717.0
001,3,13.0,0.0,a,a,0.44833109993487597,1.0,1732.0
001,3,14.0,2.0,d,d,0.5570184999378398,1.0,1746.0
001,3,15.0,3.0,f,f,0.46987709996756166,1.0,1761.0
001,3,16.0,1.0,s,s,0.3661024000030011,1.0,1777.0
001,3,17.0,0.0,a,a,0.4243741000536829,1.0,1792.0
001,3,18.0,3.0,f,f,0.43262129998765886,1.0,1807.0
001,3,19.0,2.0,d,d,0.7602112999884412,1.0,1819.0
001,3,20.0,1.0,s,s,0.29332609998527914,1.0,1836.0
001,3,21.0,3.0,f,f,0.413085600011982,1.0,1851.0
001,3,22.0,0.0,a,a,0.32364980003330857,1.0,1867.0
001,3,23.0,1.0,s,s,0.7000620999606326,1.0,1879.0
001,3,24.0,2.0,d,d,0.37450069992337376,1.0,1895.0
001,3,25.0,0.0,a,a,0.600061499979347,1.0,1908.0
001,3,26.0,2.0,d,d,0.7795689000049606,1.0,1920.0
001,3,27.0,3.0,f,f,0.6684985000174493,1.0,1933.0
001,3,28.0,1.0,s,s,0.4683623999590054,1.0,1948.0
001,3,29.0,0.0,a,a,0.5099354999838397,1.0,1962.0
001,3,30.0,3.0,f,f,0.43094670004211366,1.0,1977.0
001,3,31.0,2.0,d,d,0.38354459998663515,1.0,1993.0
001,3,32.0,1.0,s,s,0.30392330000177026,1.0,2009.0
001,3,33.0,3.0,f,f,0.38716779998503625,1.0,2025.0
001,3,34.0,0.0,a,a,0.35360510007012635,1.0,2041.0
001,3,35.0,1.0,s,s,0.3795368999708444,1.0,2057.0
001,3,36.0,2.0,d,d,0.34355379990302026,1.0,2073.0
001,3,37.0,0.0,a,a,0.4447687000501901,1.0,2088.0
001,3,38.0,2.0,d,d,0.4444938999367878,1.0,2103.0
001,3,39.0,3.0,f,f,0.4361487999558449,1.0,2118.0
001,3,40.0,1.0,s,s,0.06801389995962381,1.0,2137.0
001,3,41.0,0.0,a,a,0.5300488999346271,1.0,2151.0
001,3,42.0,3.0,f,f,0.44267490005586296,1.0,2166.0
001,3,43.0,2.0,d,d,0.8767765000229701,1.0,2177.0
001,3,44.0,1.0,s,s,0.24946730001829565,1.0,2194.0
001,3,45.0,3.0,f,f,0.43112940003629774,1.0,2209.0
001,3,46.0,0.0,a,a,0.28070599993225187,1.0,2226.0
001,3,47.0,1.0,s,s,0.4237291000317782,1.0,2241.0
001,3,48.0,2.0,d,d,0.4559080000035465,1.0,2256.0
001,4,1.0,0.0,a,a,0.5391004000557587,1.0,2270.0
001,4,2.0,2.0,d,d,0.6028952999040484,1.0,2283.0
001,4,3.0,3.0,f,f,0.397253799950704,1.0,2299.0
001,4,4.0,1.0,s,s,0.3115102000301704,1.0,2315.0
001,4,5.0,0.0,a,a,0.41601549996994436,1.0,2330.0
001,4,6.0,3.0,f,f,0.3881393999326974,1.0,2346.0
001,4,7.0,2.0,d,d,0.3349887999938801,1.0,2362.0
001,4,8.0,1.0,s,s,0.3762605000520125,1.0,2378.0
001,4,9.0,3.0,f,f,0.43622519995551556,1.0,2393.0
001,4,10.0,0.0,a,a,0.32043949991930276,1.0,2409.0
001,4,11.0,1.0,s,s,0.43006789998617023,1.0,2424.0
001,4,12.0,2.0,d,d,0.31982660002540797,1.0,2440.0
001,4,13.0,0.0,a,a,0.45302020001690835,1.0,2455.0
001,4,14.0,2.0,d,d,0.4380515000084415,1.0,2470.0
001,4,15.0,3.0,f,f,0.392166499979794,1.0,2486.0
001,4,16.0,1.0,s,s,0.23122449999209493,1.0,2503.0
001,4,17.0,0.0,a,a,0.36652329994831234,1.0,2519.0
001,4,18.0,3.0,f,f,0.36477129999548197,1.0,2535.0
001,4,19.0,2.0,d,d,0.3282223999267444,1.0,2551.0
001,4,20.0,1.0,s,s,0.3569193999283016,1.0,2567.0
001,4,21.0,3.0,f,f,0.4731368999928236,1.0,2582.0
001,4,22.0,0.0,a,a,0.31120380002539605,1.0,2598.0
001,4,23.0,1.0,s,s,0.5505991999525577,1.0,2612.0
001,4,24.0,2.0,d,d,0.32790999999269843,1.0,2628.0
001,4,25.0,0.0,a,a,0.43791420001070946,1.0,2643.0
001,4,26.0,2.0,d,d,0.44851070002187043,1.0,2658.0
001,4,27.0,3.0,f,f,0.45799459994304925,1.0,2673.0
001,4,28.0,1.0,s,s,0.27266109990887344,1.0,2690.0
001,4,29.0,0.0,a,a,0.39674229989759624,1.0,2706.0
001,4,30.0,3.0,f,f,0.3594654999906197,1.0,2722.0
001,4,31.0,2.0,d,d,0.3673004999291152,1.0,2738.0
001,4,32.0,1.0,s,s,0.308603800018318,1.0,2754.0
001,4,33.0,3.0,f,f,0.45276779995765537,1.0,2769.0
001,4,34.0,0.0,a,a,0.3604696999536827,1.0,2785.0
001,4,35.0,1.0,s,s,0.3760376999853179,1.0,2801.0
001,4,36.0,2.0,d,d,0.5483318999176845,1.0,2815.0
001,4,37.0,0.0,a,a,0.45707579993177205,1.0,2830.0
001,4,38.0,2.0,d,d,0.5273103999206796,1.0,2844.0
001,4,39.0,3.0,f,f,0.41979459999129176,1.0,2859.0
001,4,40.0,1.0,s,s,0.3902501999400556,1.0,2875.0
001,4,41.0,0.0,a,a,0.43067819997668266,1.0,2890.0
001,4,42.0,3.0,f,f,0.4025788999861106,1.0,2905.0
001,4,43.0,2.0,d,d,0.2832287000492215,1.0,2922.0
001,4,44.0,1.0,s,s,0.37190240004565567,1.0,2938.0
001,4,45.0,3.0,f,f,0.49398490006569773,1.0,2953.0
001,4,46.0,0.0,a,a,0.3791831999551505,1.0,2969.0
001,4,47.0,1.0,s,s,0.44331769994460046,1.0,2984.0
001,4,48.0,2.0,d,d,0.3000796000706032,1.0,3000.0
001,5,1.0,0.0,a,a,0.5347944999812171,1.0,3014.0
001,5,2.0,2.0,d,f,0.39545049995649606,0.0,3014.0
001,5,3.0,3.0,f,f,0.5689476999687031,1.0,3028.0
001,5,4.0,1.0,s,s,0.3361420000437647,1.0,3044.0
001,5,5.0,0.0,a,a,0.45009549998212606,1.0,3059.0
001,5,6.0,3.0,f,f,0.4225792000070214,1.0,3074.0
001,5,7.0,2.0,d,d,0.3983681999379769,1.0,3090.0
001,5,8.0,1.0,s,s,0.30826039996463805,1.0,3106.0
001,5,9.0,3.0,f,f,0.41861490008886904,1.0,3121.0
001,5,10.0,0.0,a,a,0.4036045001121238,1.0,3136.0
001,5,11.0,1.0,s,s,0.3998231999576092,1.0,3152.0
001,5,12.0,2.0,d,d,0.3287652999861166,1.0,3168.0
001,5,13.0,0.0,a,a,0.45277219999115914,1.0,3183.0
001,5,14.0,2.0,d,d,0.8383554000174627,1.0,3194.0
001,5,15.0,3.0,f,f,0.39073139999527484,1.0,3210.0
001,5,16.0,1.0,s,s,0.3519532000645995,1.0,3226.0
001,5,17.0,0.0,a,a,0.4067245000042021,1.0,3241.0
001,5,18.0,3.0,f,f,0.40229759993962944,1.0,3256.0
001,5,19.0,2.0,d,d,0.3954964999575168,1.0,3272.0
001,5,20.0,1.0,s,s,0.2752671999623999,1.0,3289.0
001,5,21.0,3.0,f,f,0.513252199976705,1.0,3303.0
001,5,22.0,0.0,a,a,0.2870606000069529,1.0,3320.0
001,5,23.0,1.0,s,s,0.4649208999471739,1.0,3335.0
001,5,24.0,2.0,d,d,0.3283815999748185,1.0,3351.0
001,5,25.0,0.0,a,a,0.48813059995882213,1.0,3366.0
001,5,26.0,2.0,d,d,0.7244973999913782,1.0,3378.0
001,5,27.0,3.0,f,f,0.474189699976705,1.0,3393.0
001,5,28.0,1.0,s,s,0.3260841000592336,1.0,3409.0
001,5,29.0,0.0,a,a,0.3564462000504136,1.0,3425.0
001,5,30.0,3.0,f,f,0.39018990006297827,1.0,3441.0
001,5,31.0,2.0,d,d,0.6458024999592453,1.0,3454.0
001,5,32.0,1.0,s,s,0.2888608000939712,1.0,3471.0
001,5,33.0,3.0,f,f,0.4216807000339031,1.0,3486.0
001,5,34.0,0.0,a,a,0.33862200006842613,1.0,3502.0
001,5,35.0,1.0,s,s,0.44921430002432317,1.0,3517.0
001,5,36.0,2.0,d,d,0.7045943000121042,1.0,3529.0
001,5,37.0,0.0,a,s,0.39285260008182377,0.0,3529.0
001,5,38.0,2.0,d,d,0.7399509999668226,1.0,3541.0
001,5,39.0,3.0,f,f,0.3948291999986395,1.0,3557.0
001,5,40.0,1.0,s,s,0.589161999989301,1.0,3571.0
001,5,41.0,0.0,a,a,0.46325719996821135,1.0,3586.0
001,5,42.0,3.0,f,f,0.4571429999778047,1.0,3601.0
001,5,43.0,2.0,d,d,0.6363816999364644,1.0,3614.0
001,5,44.0,1.0,s,s,0.3444102000212297,1.0,3630.0
001,5,45.0,3.0,f,f,0.5516154000069946,1.0,3644.0
001,5,46.0,0.0,a,a,0.3659063000231981,1.0,3660.0
001,5,47.0,1.0,s,s,0.5386072000255808,1.0,3674.0
001,5,48.0,2.0,d,d,0.32850199996028095,1.0,3690.0
001,6,1.0,2.0,d,d,0.846795600024052,1.0,3701.0
001,6,2.0,2.0,d,d,0.4696580999298021,1.0,3716.0
001,6,3.0,1.0,s,s,0.3992864000611007,1.0,3732.0
001,6,4.0,2.0,d,d,0.46822709997650236,1.0,3747.0
001,6,5.0,1.0,s,s,0.3819670000812039,1.0,3763.0
001,6,6.0,0.0,a,a,0.4798200000077486,1.0,3778.0
001,6,7.0,0.0,a,a,0.41426530003082007,1.0,3793.0
001,6,8.0,0.0,a,a,0.3060029000043869,1.0,3809.0
001,6,9.0,0.0,a,a,0.31173519999720156,1.0,3825.0
001,6,10.0,3.0,f,f,0.6202835000585765,1.0,3838.0
001,6,11.0,0.0,a,a,0.45691149996127933,1.0,3853.0
001,6,12.0,2.0,d,d,0.6776528999907896,1.0,3866.0
001,6,13.0,2.0,d,d,0.4262236999347806,1.0,3881.0
001,6,14.0,2.0,d,d,0.29864099994301796,1.0,3898.0
001,6,15.0,0.0,a,a,0.5243315000552684,1.0,3912.0
001,6,16.0,0.0,a,a,0.33310819999314845,1.0,3928.0
001,6,17.0,0.0,a,a,0.30008990003261715,1.0,3944.0
001,6,18.0,3.0,f,f,0.42934249993413687,1.0,3959.0
001,6,19.0,1.0,s,s,0.5679774000309408,1.0,3973.0
001,6,20.0,1.0,s,s,0.3468637000769377,1.0,3989.0
001,6,21.0,2.0,d,d,0.42951300006825477,1.0,4004.0
001,6,22.0,0.0,a,a,0.5311293000122532,1.0,4018.0
001,6,23.0,2.0,d,d,0.6826206999830902,1.0,4031.0
001,6,24.0,3.0,f,f,0.47608900000341237,1.0,4046.0
001,6,25.0,3.0,f,f,0.45223709999118,1.0,4061.0
001,6,26.0,3.0,f,f,0.340226799948141,1.0,4077.0
001,6,27.0,2.0,d,f,0.26246539992280304,0.0,4077.0
001,6,28.0,2.0,d,d,0.8126572000328451,1.0,4088.0
001,6,29.0,2.0,d,d,0.39557649998459965,1.0,4104.0
001,6,30.0,1.0,s,s,0.4008572999155149,1.0,4119.0
001,6,31.0,0.0,a,a,0.39511729998048395,1.0,4135.0
001,6,32.0,0.0,a,a,0.3165939999744296,1.0,4151.0
001,6,33.0,2.0,d,d,0.6419353999663144,1.0,4164.0
001,6,34.0,1.0,s,s,0.5065773000242189,1.0,4178.0
001,6,35.0,0.0,a,a,0.4182912000687793,1.0,4193.0
001,6,36.0,3.0,f,f,0.4569725999608636,1.0,4208.0
001,6,37.0,2.0,d,d,0.35702700004912913,1.0,4224.0
001,6,38.0,2.0,d,d,0.35823330003768206,1.0,4240.0
001,6,39.0,1.0,s,s,0.39601860009133816,1.0,4256.0
001,6,40.0,3.0,f,f,0.49245770007837564,1.0,4271.0
001,6,41.0,2.0,d,d,0.49269440001808107,1.0,4286.0
001,6,42.0,1.0,s,s,0.4202728000236675,1.0,4301.0
001,6,43.0,2.0,d,d,0.6047730999998748,1.0,4314.0
001,6,44.0,3.0,f,f,0.3556566999759525,1.0,4330.0
001,6,45.0,1.0,s,s,0.45401969994418323,1.0,4345.0
001,6,46.0,0.0,a,a,0.456824199995026,1.0,4360.0
001,6,47.0,0.0,a,a,0.4918620000826195,1.0,4375.0
001,6,48.0,1.0,s,s,0.3509650999912992,1.0,4391.0
001,7,1.0,1.0,s,d,1.1055896000470966,0.0,4391.0
001,7,2.0,3.0,f,f,0.5444327000295743,1.0,4405.0
001,7,3.0,3.0,f,f,0.42726919997949153,1.0,4420.0
001,7,4.0,2.0,d,d,0.5755445000249892,1.0,4434.0
001,7,5.0,1.0,s,s,0.5243642000714317,1.0,4448.0
001,7,6.0,2.0,d,d,0.5092590999556705,1.0,4462.0
001,7,7.0,1.0,s,s,0.40384269994683564,1.0,4477.0
001,7,8.0,1.0,s,s,0.44745860004331917,1.0,4492.0
001,7,9.0,0.0,a,a,0.5109586999751627,1.0,4506.0
001,7,10.0,2.0,d,d,0.4552768999710679,1.0,4521.0
001,7,11.0,2.0,d,d,0.5823247999651358,1.0,4535.0
001,7,12.0,0.0,a,a,0.4536055000498891,1.0,4550.0
001,7,13.0,0.0,a,a,0.29322750004939735,1.0,4567.0
001,7,14.0,2.0,d,d,0.3793336000526324,1.0,4583.0
001,7,15.0,1.0,s,s,0.5520562999881804,1.0,4597.0
001,7,16.0,0.0,a,a,0.4729614000534639,1.0,4612.0
001,7,17.0,2.0,d,d,0.557306700036861,1.0,4626.0
001,7,18.0,1.0,s,s,0.6101116000209004,1.0,4639.0
001,7,19.0,1.0,s,s,0.390606899978593,1.0,4655.0
001,7,20.0,1.0,s,s,0.2940489000175148,1.0,4672.0
001,7,21.0,1.0,s,s,0.72590260009747,1.0,4684.0
001,7,22.0,3.0,f,s,0.15244049998000264,0.0,4684.0
001,7,23.0,1.0,s,s,0.5452400000067428,1.0,4698.0
001,7,24.0,0.0,a,a,0.4130056999856606,1.0,4713.0
001,7,25.0,3.0,f,f,0.4520831999834627,1.0,4728.0
001,7,26.0,3.0,f,f,0.4847348000621423,1.0,4743.0
001,7,27.0,3.0,f,f,0.3303500000620261,1.0,4759.0
001,7,28.0,1.0,s,s,0.449772399966605,1.0,4774.0
001,7,29.0,1.0,s,s,0.3243123000720516,1.0,4790.0
001,7,30.0,2.0,d,d,0.48295360000338405,1.0,4805.0
001,7,31.0,1.0,s,s,0.4228226999985054,1.0,4820.0
001,7,32.0,2.0,d,d,0.25510479998774827,1.0,4837.0
001,7,33.0,2.0,d,s,0.18032749998383224,0.0,4837.0
001,7,34.0,1.0,s,s,0.6508500999771059,1.0,4850.0
001,7,35.0,0.0,a,a,0.42404670000541955,1.0,4865.0
001,7,36.0,0.0,a,a,0.3159423000179231,1.0,4881.0
001,7,37.0,2.0,d,d,0.631707499967888,1.0,4894.0
001,7,38.0,1.0,s,s,0.4841540000634268,1.0,4909.0
001,7,39.0,1.0,s,s,0.3095988999120891,1.0,4925.0
001,7,40.0,2.0,d,d,0.3824744999874383,1.0,4941.0
001,7,41.0,1.0,s,d,0.3172180000692606,0.0,4941.0
001,7,42.0,0.0,a,a,0.5837127000559121,1.0,4955.0
001,7,43.0,0.0,a,a,0.32587609998881817,1.0,4971.0
001,7,44.0,3.0,f,f,0.48610480001661927,1.0,4986.0
001,7,45.0,2.0,d,d,0.7676078999647871,1.0,4998.0
001,7,46.0,1.0,s,s,0.4252101000165567,1.0,5013.0
001,7,47.0,2.0,d,d,0.5972957999911159,1.0,5027.0
001,7,48.0,1.0,s,s,0.4329236999619752,1.0,5042.0
001,8,1.0,3.0,f,f,0.5764748000074178,1.0,5056.0
001,8,2.0,2.0,d,d,0.4465836000163108,1.0,5071.0
001,8,3.0,0.0,a,a,0.4727931000525132,1.0,5086.0
001,8,4.0,1.0,s,s,0.7403685000026599,1.0,5098.0
001,8,5.0,2.0,d,d,0.40037059993483126,1.0,5113.0
001,8,6.0,0.0,a,a,0.5183945000171661,1.0,5127.0
001,8,7.0,3.0,f,f,0.428766299970448,1.0,5142.0
001,8,8.0,0.0,a,a,0.5934187000384554,1.0,5156.0
001,8,9.0,2.0,d,d,0.6328141000121832,1.0,5169.0
001,8,10.0,1.0,s,s,0.3769780999282375,1.0,5185.0
001,8,11.0,3.0,f,f,0.4795226000715047,1.0,5200.0
001,8,12.0,0.0,a,a,0.3630177000304684,1.0,5216.0
001,8,13.0,3.0,f,f,0.45863490004558116,1.0,5231.0
001,8,14.0,2.0,d,d,0.4626754999626428,1.0,5246.0
001,8,15.0,0.0,a,a,0.5496750000165775,1.0,5260.0
001,8,16.0,1.0,s,s,0.33354929997585714,1.0,5276.0
001,8,17.0,2.0,d,d,0.3894910999806598,1.0,5292.0
001,8,18.0,0.0,a,a,0.5332583000417799,1.0,5306.0
001,8,19.0,3.0,f,f,0.4224005000432953,1.0,5321.0
001,8,20.0,0.0,a,a,0.401617499999702,1.0,5336.0
001,8,21.0,2.0,d,d,0.5949202999472618,1.0,5350.0
001,8,22.0,1.0,s,s,0.32953769993036985,1.0,5366.0
001,8,23.0,3.0,f,f,0.3862506999867037,1.0,5382.0
001,8,24.0,0.0,a,a,0.2817245000042021,1.0,5399.0
001,8,25.0,3.0,f,f,0.4606932000024244,1.0,5414.0
001,8,26.0,2.0,d,d,0.5023809999693185,1.0,5428.0
001,8,27.0,0.0,a,a,0.4960033999523148,1.0,5443.0
001,8,28.0,1.0,s,s,0.49829079990740865,1.0,5458.0
001,8,29.0,2.0,d,d,0.4329635000322014,1.0,5473.0
001,8,30.0,0.0,a,a,0.5462998000439256,1.0,5487.0
001,8,31.0,3.0,f,f,0.4181612000102177,1.0,5502.0
001,8,32.0,0.0,a,a,0.3229920999146998,1.0,5518.0
001,8,33.0,2.0,d,d,0.5931562000187114,1.0,5532.0
001,8,34.0,1.0,s,s,0.4488092999672517,1.0,5547.0
001,8,35.0,3.0,f,f,0.3762001000577584,1.0,5563.0
001,8,36.0,0.0,a,a,0.3435163999674842,1.0,5579.0
001,8,37.0,3.0,f,f,0.5108792000683025,1.0,5593.0
001,8,38.0,2.0,d,d,0.6677156999940053,1.0,5606.0
001,8,39.0,0.0,a,a,0.35878070001490414,1.0,5622.0
001,8,40.0,1.0,s,s,0.5186224000062793,1.0,5636.0
001,8,41.0,2.0,d,d,0.4507863000035286,1.0,5651.0
001,8,42.0,0.0,a,a,0.44483589997980744,1.0,5666.0
001,8,43.0,3.0,f,f,0.5193819999694824,1.0,5680.0
001,8,44.0,0.0,a,a,0.437723399954848,1.0,5695.0
001,8,45.0,2.0,d,d,0.4531790000619367,1.0,5710.0
001,8,46.0,1.0,s,s,0.5559971000766382,1.0,5724.0
001,8,47.0,3.0,f,f,0.42413029994349927,1.0,5739.0
001,8,48.0,0.0,a,a,0.33102480007801205,1.0,5755.0
001,awareness,,,,,n,,
001,awareness_guess,,,,,ffasdff,,
007,1,1.0,1.0,s,s,0.5540392999537289,1.0,14.0
007,1,2.0,1.0,s,s,0.31870870012789965,1.0,30.0
007,1,3.0,2.0,d,d,0.5601057999301702,1.0,44.0
007,1,4.0,0.0,a,s,0.46941339992918074,0.0,44.0
007,1,5.0,2.0,d,d,0.8200192998629063,1.0,55.0
007,1,6.0,1.0,s,s,0.5870820998679847,1.0,69.0
007,1,7.0,2.0,d,d,0.618385799927637,1.0,82.0
007,1,8.0,1.0,s,s,0.47094079991802573,1.0,97.0
007,1,9.0,0.0,a,a,0.5550606001634151,1.0,111.0
007,1,10.0,2.0,d,d,0.703852100064978,1.0,123.0
007,1,11.0,3.0,f,f,0.4324640999548137,1.0,138.0
007,1,12.0,1.0,s,s,0.5873943001497537,1.0,152.0
007,1,13.0,0.0,a,a,0.3505760000552982,1.0,168.0
007,1,14.0,1.0,s,s,0.4631262000184506,1.0,183.0
007,1,15.0,0.0,a,a,0.48777409992180765,1.0,198.0
007,1,16.0,0.0,a,a,0.4003722998313606,1.0,213.0
007,1,17.0,0.0,a,a,0.3201446000020951,1.0,229.0
007,1,18.0,2.0,d,d,0.5310237999074161,1.0,243.0
007,1,19.0,0.0,a,a,0.4109859000891447,1.0,258.0
007,1,20.0,3.0,f,f,0.5657623999286443,1.0,272.0
007,1,21.0,3.0,f,f,0.40254210005514324,1.0,287.0
007,1,22.0,0.0,a,a,0.41507559991441667,1.0,302.0
007,1,23.0,0.0,a,a,0.29459009994752705,1.0,319.0
007,1,24.0,0.0,a,a,0.30966640007682145,1.0,335.0
007,1,25.0,1.0,s,s,0.5332868997938931,1.0,349.0
007,1,26.0,1.0,s,s,0.27437810017727315,1.0,366.0
007,1,27.0,3.0,f,f,0.4300964998546988,1.0,381.0
007,1,28.0,2.0,d,s,0.44550930010154843,0.0,381.0
007,1,29.0,3.0,f,f,0.4263698998838663,1.0,396.0
007,1,30.0,2.0,d,d,0.3630223998334259,1.0,412.0
007,1,31.0,0.0,a,a,0.4637132999487221,1.0,427.0
007,1,32.0,1.0,s,d,0.41791590000502765,0.0,427.0
007,1,33.0,0.0,a,a,0.7717163001652807,1.0,439.0
007,1,34.0,0.0,a,a,0.4096890001092106,1.0,454.0
007,1,35.0,2.0,d,d,0.9063091001007706,1.0,464.0
007,1,36.0,1.0,s,s,0.49606349994428456,1.0,479.0
007,1,37.0,1.0,s,s,0.34743349999189377,1.0,495.0
007,1,38.0,2.0,d,d,0.501189999980852,1.0,509.0
007,1,39.0,1.0,s,s,0.44226750009693205,1.0,524.0
007,1,40.0,0.0,a,a,0.45326069998554885,1.0,539.0
007,1,41.0,3.0,f,a,0.42427109996788204,0.0,539.0
007,1,42.0,3.0,f,f,2.1521415000315756,1.0,549.0
007,1,43.0,3.0,f,f,0.2631880999542773,1.0,566.0
007,1,44.0,2.0,d,d,0.4374487998429686,1.0,581.0
007,1,45.0,0.0,a,a,0.5692516998387873,1.0,595.0
007,1,46.0,0.0,a,a,0.3374126998241991,1.0,611.0
007,1,47.0,2.0,d,d,0.41335050016641617,1.0,626.0
007,1,48.0,3.0,f,f,0.3459683998953551,1.0,642.0
007,2,1.0,0.0,a,a,0.6772102999966592,1.0,655.0
007,2,2.0,2.0,d,d,0.37582110008224845,1.0,671.0
007,2,3.0,3.0,f,f,0.3117980998940766,1.0,687.0
007,2,4.0,1.0,s,s,3.08753120014444,1.0,697.0
007,2,5.0,0.0,a,a,0.7509103999473155,1.0,709.0
007,2,6.0,3.0,f,f,0.9515756999608129,1.0,719.0
007,2,7.0,2.0,d,d,0.45399609999731183,1.0,734.0
007,2,8.0,1.0,s,s,0.3899161000736058,1.0,750.0
007,2,9.0,3.0,f,f,0.5025573000311852,1.0,764.0
007,2,10.0,0.0,a,a,0.4193871000315994,1.0,779.0
007,2,11.0,1.0,s,s,0.42546670022420585,1.0,794.0
007,2,12.0,2.0,d,d,0.5319113999139518,1.0,808.0
007,2,13.0,0.0,a,s,0.4580141000915319,0.0,808.0
007,2,14.0,2.0,d,d,1.2022956998553127,1.0,818.0
007,2,15.0,3.0,f,f,0.6761497999541461,1.0,831.0
007,2,16.0,1.0,s,s,0.4836919999215752,1.0,846.0
007,2,17.0,0.0,a,a,0.2817498999647796,1.0,863.0
007,2,18.0,3.0,f,f,0.5502583999186754,1.0,877.0
007,2,19.0,2.0,d,d,0.6396517001558095,1.0,890.0
007,2,20.0,1.0,s,s,0.3866375999059528,1.0,906.0
007,2,21.0,3.0,f,f,0.4540405999869108,1.0,921.0
007,2,22.0,0.0,a,a,0.4560851000715047,1.0,936.0
007,2,23.0,1.0,s,s,0.4080211000982672,1.0,951.0
007,2,24.0,2.0,d,d,0.5035893002059311,1.0,965.0
007,2,25.0,0.0,a,a,0.4818245000205934,1.0,980.0
007,2,26.0,2.0,d,d,0.8723699999973178,1.0,991.0
007,2,27.0,3.0,f,d,0.0586973000317812,0.0,991.0
007,2,28.0,1.0,s,s,0.5993898999877274,1.0,1005.0
007,2,29.0,0.0,a,a,0.4022438998799771,1.0,1020.0
007,2,30.0,3.0,f,f,0.41617770004086196,1.0,1035.0
007,2,31.0,2.0,d,d,0.6870184000581503,1.0,1048.0
007,2,32.0,1.0,s,s,0.38974960008636117,1.0,1064.0
007,2,33.0,3.0,f,f,0.42678790003992617,1.0,1079.0
007,2,34.0,0.0,a,a,0.3966246999334544,1.0,1095.0
007,2,35.0,1.0,s,s,0.40714269992895424,1.0,1110.0
007,2,36.0,2.0,d,d,0.33831859985366464,1.0,1126.0
007,2,37.0,0.0,a,a,0.3999665998853743,1.0,1142.0
007,2,38.0,2.0,d,d,0.51650599995628,1.0,1156.0
007,2,39.0,3.0,f,f,0.34809069987386465,1.0,1172.0
007,2,40.0,1.0,s,s,0.40742950001731515,1.0,1187.0
007,2,41.0,0.0,a,a,0.26644670008681715,1.0,1204.0
007,2,42.0,3.0,f,f,0.4766484999563545,1.0,1219.0
007,2,43.0,2.0,d,d,0.4071438000537455,1.0,1234.0
007,2,44.0,1.0,s,s,0.32091329991817474,1.0,1250.0
007,2,45.0,3.0,f,f,0.48232609988190234,1.0,1265.0
007,2,46.0,0.0,a,a,0.37701539997942746,1.0,1281.0
007,2,47.0,1.0,s,s,0.4217944999691099,1.0,1296.0
007,2,48.0,2.0,d,d,0.47875539981760085,1.0,1311.0
007,3,1.0,0.0,a,a,0.5212566999252886,1.0,1325.0
007,3,2.0,2.0,d,d,0.7604974999558181,1.0,1337.0
007,3,3.0,3.0,f,f,0.5350474999286234,1.0,1351.0
007,3,4.0,1.0,s,s,0.4307705000974238,1.0,1366.0
007,3,5.0,0.0,a,a,0.27213419997133315,1.0,1383.0
007,3,6.0,3.0,f,f,0.5876521000172943,1.0,1397.0
007,3,7.0,2.0,d,d,0.44742770004086196,1.0,1412.0
007,3,8.0,1.0,s,s,0.3104932000860572,1.0,1428.0
007,3,9.0,3.0,f,f,0.4638233999721706,1.0,1443.0
007,3,10.0,0.0,a,a,0.36145210009999573,1.0,1459.0
007,3,11.0,1.0,s,s,0.379299100022763,1.0,1475.0
007,3,12.0,2.0,d,d,0.39139859983697534,1.0,1491.0
007,3,13.0,0.0,a,a,0.386730499798432,1.0,1507.0
007,3,14.0,2.0,d,d,0.5373434999492019,1.0,1521.0
007,3,15.0,3.0,f,f,0.3778102002106607,1.0,1537.0
007,3,16.0,1.0,s,s,0.7273562999907881,1.0,1549.0
007,3,17.0,0.0,a,a,0.2855628998950124,1.0,1566.0
007,3,18.0,3.0,f,f,0.4220333001576364,1.0,1581.0
007,3,19.0,2.0,d,d,0.46836120006628335,1.0,1596.0
007,3,20.0,1.0,s,s,0.31274259998463094,1.0,1612.0
007,3,21.0,3.0,f,f,0.4065258998889476,1.0,1627.0
007,3,22.0,0.0,a,a,0.37096709990873933,1.0,1643.0
007,3,23.0,1.0,s,s,0.33417739998549223,1.0,1659.0
007,3,24.0,2.0,d,d,0.3371969999279827,1.0,1675.0
007,3,25.0,0.0,a,a,0.4243165000807494,1.0,1690.0
007,3,26.0,2.0,d,d,0.48848759988322854,1.0,1705.0
007,3,27.0,3.0,f,f,0.47926819999702275,1.0,1720.0
007,3,28.0,1.0,s,s,0.35991070000454783,1.0,1736.0
007,3,29.0,0.0,a,a,0.30766940000467,1.0,1752.0
007,3,30.0,3.0,f,f,0.46672300016507506,1.0,1767.0
007,3,31.0,2.0,d,d,0.42172109987586737,1.0,1782.0
007,3,32.0,1.0,s,s,0.36649179994128644,1.0,1798.0
007,3,33.0,3.0,f,f,0.38670639996416867,1.0,1814.0
007,3,34.0,0.0,a,a,0.372920700116083,1.0,1830.0
007,3,35.0,1.0,s,s,0.36772400001063943,1.0,1846.0
007,3,36.0,2.0,d,d,0.3682254001032561,1.0,1862.0
007,3,37.0,0.0,a,a,0.45150350010953844,1.0,1877.0
007,3,38.0,2.0,d,d,0.559752400033176,1.0,1891.0
007,3,39.0,3.0,f,f,0.3588423999026418,1.0,1907.0
007,3,40.0,1.0,s,s,0.3180403998121619,1.0,1923.0
007,3,41.0,0.0,a,a,0.2700318000279367,1.0,1940.0
007,3,42.0,3.0,f,f,0.4046563000883907,1.0,1955.0
007,3,43.0,2.0,d,d,0.32707010000012815,1.0,1971.0
007,3,44.0,1.0,s,s,0.2841493000742048,1.0,1988.0
007,3,45.0,3.0,f,f,0.4215589000377804,1.0,2003.0
007,3,46.0,0.0,a,a,0.4951535000000149,1.0,2018.0
007,3,47.0,1.0,s,s,0.3671470999252051,1.0,2034.0
007,3,48.0,2.0,d,d,0.306445199996233,1.0,2050.0
007,4,1.0,0.0,a,a,0.4251530000474304,1.0,2065.0
007,4,2.0,2.0,d,s,0.3280644998885691,0.0,2065.0
007,4,3.0,3.0,f,f,0.6014341001864523,1.0,2078.0
007,4,4.0,1.0,s,s,0.4304841998964548,1.0,2093.0
007,4,5.0,0.0,a,a,0.36759210005402565,1.0,2109.0
007,4,6.0,3.0,f,f,0.4612111998721957,1.0,2124.0
007,4,7.0,2.0,d,d,0.3240055001806468,1.0,2140.0
007,4,8.0,1.0,s,s,0.32193889981135726,1.0,2156.0
007,4,9.0,3.0,f,f,0.43984550004824996,1.0,2171.0
007,4,10.0,0.0,a,a,0.42040769988670945,1.0,2186.0
007,4,11.0,1.0,s,s,0.4383314000442624,1.0,2201.0
007,4,12.0,2.0,d,d,0.32617920008488,1.0,2217.0
007,4,13.0,0.0,a,a,0.3741188000421971,1.0,2233.0
007,4,14.0,2.0,d,d,0.5159225000534207,1.0,2247.0
007,4,15.0,3.0,f,f,0.36815920006483793,1.0,2263.0
007,4,16.0,1.0,s,d,0.3343547999393195,0.0,2263.0
007,4,17.0,0.0,a,a,0.5118130000773817,1.0,2277.0
007,4,18.0,3.0,f,f,0.4457322999369353,1.0,2292.0
007,4,19.0,2.0,d,d,0.35058240010403097,1.0,2308.0
007,4,20.0,1.0,s,s,0.290692999958992,1.0,2325.0
007,4,21.0,3.0,f,f,0.44236019998788834,1.0,2340.0
007,4,22.0,0.0,a,a,0.38813129998743534,1.0,2356.0
007,4,23.0,1.0,s,s,0.30008439999073744,1.0,2372.0
007,4,24.0,2.0,d,d,0.30493980017490685,1.0,2388.0
007,4,25.0,0.0,a,a,0.40071900002658367,1.0,2403.0
007,4,26.0,2.0,d,d,0.6125272000208497,1.0,2416.0
007,4,27.0,3.0,f,f,0.45034309988841414,1.0,2431.0
007,4,28.0,1.0,s,s,0.4419110999442637,1.0,2446.0
007,4,29.0,0.0,a,a,0.3613479998894036,1.0,2462.0
007,4,30.0,3.0,f,f,0.7249437998980284,1.0,2474.0
007,4,31.0,2.0,d,d,0.3042197998147458,1.0,2490.0
007,4,32.0,1.0,s,s,0.25299920001998544,1.0,2507.0
007,4,33.0,3.0,f,f,0.4878186001442373,1.0,2522.0
007,4,34.0,0.0,a,s,0.3106156000867486,0.0,2522.0
007,4,35.0,1.0,s,s,0.5062855000142008,1.0,2536.0
007,4,36.0,2.0,d,d,0.8534166000317782,1.0,2547.0
007,4,37.0,0.0,a,a,0.3771905000321567,1.0,2563.0
007,4,38.0,2.0,d,d,0.534931099973619,1.0,2577.0
007,4,39.0,3.0,f,f,0.3159040999598801,1.0,2593.0
007,4,40.0,1.0,s,s,0.4605439999140799,1.0,2608.0
007,4,41.0,0.0,a,a,0.22638290002942085,1.0,2625.0
007,4,42.0,3.0,f,f,0.49340620008297265,1.0,2640.0
007,4,43.0,2.0,d,f,0.30807680008001626,0.0,2640.0
007,4,44.0,1.0,s,s,0.54130919999443,1.0,2654.0
007,4,45.0,3.0,f,f,0.4847165998071432,1.0,2669.0
007,4,46.0,0.0,a,a,0.4629306001588702,1.0,2684.0
007,4,47.0,1.0,s,s,0.4568455000407994,1.0,2699.0
007,4,48.0,2.0,d,d,0.3666957998648286,1.0,2715.0
007,5,1.0,0.0,a,a,0.4785858001559973,1.0,2730.0
007,5,2.0,2.0,d,d,0.4330805998761207,1.0,2745.0
007,5,3.0,3.0,f,f,0.45896749990060925,1.0,2760.0
007,5,4.0,1.0,s,s,0.3655614999588579,1.0,2776.0
007,5,5.0,0.0,a,a,0.29392639989964664,1.0,2793.0
007,5,6.0,3.0,f,f,0.5789175999816507,1.0,2807.0
007,5,7.0,2.0,d,d,0.43889629980549216,1.0,2822.0
007,5,8.0,1.0,s,s,0.2875389000400901,1.0,2839.0
007,5,9.0,3.0,f,f,0.382488900097087,1.0,2855.0
007,5,10.0,0.0,a,a,0.4173179999925196,1.0,2870.0
007,5,11.0,1.0,s,s,0.30985040008090436,1.0,2886.0
007,5,12.0,2.0,d,d,0.2726972000673413,1.0,2903.0
007,5,13.0,0.0,a,a,0.4179915999993682,1.0,2918.0
007,5,14.0,2.0,d,d,0.6981879000086337,1.0,2931.0
007,5,15.0,3.0,f,f,0.661072000162676,1.0,2944.0
007,5,16.0,1.0,s,s,0.3660563000012189,1.0,2960.0
007,5,17.0,0.0,a,a,0.32232540007680655,1.0,2976.0
007,5,18.0,3.0,f,f,0.44288169988431036,1.0,2991.0
007,5,19.0,2.0,d,d,0.271896000020206,1.0,3008.0
007,5,20.0,1.0,s,s,0.2764924999792129,1.0,3025.0
007,5,21.0,3.0,f,f,0.39692099997773767,1.0,3041.0
007,5,22.0,0.0,a,a,0.4136166002135724,1.0,3056.0
007,5,23.0,1.0,s,s,0.3644764998462051,1.0,3072.0
007,5,24.0,2.0,d,d,0.28169570001773536,1.0,3089.0
007,5,25.0,0.0,a,a,0.3985421999823302,1.0,3105.0
007,5,26.0,2.0,d,s,0.2094362999778241,0.0,3105.0
007,5,27.0,3.0,f,f,0.634230799973011,1.0,3118.0
007,5,28.0,1.0,s,s,0.4541925999801606,1.0,3133.0
007,5,29.0,0.0,a,a,0.4942501001060009,1.0,3148.0
007,5,30.0,3.0,f,f,0.3762891001533717,1.0,3164.0
007,5,31.0,2.0,d,d,0.4504543000366539,1.0,3179.0
007,5,32.0,1.0,s,s,0.32086229999549687,1.0,3195.0
007,5,33.0,3.0,f,f,0.44887740002013743,1.0,3210.0
007,5,34.0,0.0,a,a,0.4196879998780787,1.0,3225.0
007,5,35.0,1.0,s,s,0.36846680007874966,1.0,3241.0
007,5,36.0,2.0,d,d,0.3674328001216054,1.0,3257.0
007,5,37.0,0.0,a,a,0.38371680001728237,1.0,3273.0
007,5,38.0,2.0,d,f,0.8912847000174224,0.0,3273.0
007,5,39.0,3.0,f,f,0.7863908999133855,1.0,3285.0
007,5,40.0,1.0,s,s,0.6777924001216888,1.0,3298.0
007,5,41.0,0.0,a,a,0.2898456999100745,1.0,3315.0
007,5,42.0,3.0,f,f,0.5162239000201225,1.0,3329.0
007,5,43.0,2.0,d,d,0.411302300170064,1.0,3344.0
007,5,44.0,1.0,s,s,0.36518880003131926,1.0,3360.0
007,5,45.0,3.0,f,f,0.4412738000974059,1.0,3375.0
007,5,46.0,0.0,a,a,0.4553100001066923,1.0,3390.0
007,5,47.0,1.0,s,s,0.33718040003441274,1.0,3406.0
007,5,48.0,2.0,d,d,0.3375723999924958,1.0,3422.0
007,6,1.0,2.0,d,d,0.4961757999844849,1.0,3437.0
007,6,2.0,3.0,f,f,0.41358060017228127,1.0,3452.0
007,6,3.0,2.0,d,d,0.31505530001595616,1.0,3468.0
007,6,4.0,0.0,a,a,0.49922139989212155,1.0,3483.0
007,6,5.0,3.0,f,f,0.6764675001613796,1.0,3496.0
007,6,6.0,0.0,a,a,0.37901370017789304,1.0,3512.0
007,6,7.0,0.0,a,s,0.29538719984702766,0.0,3512.0
007,6,8.0,0.0,a,a,0.5024365000426769,1.0,3526.0
007,6,9.0,1.0,s,s,0.5092245999258012,1.0,3540.0
007,6,10.0,0.0,a,a,0.40966519992798567,1.0,3555.0
007,6,11.0,2.0,d,d,0.5703227000776678,1.0,3569.0
007,6,12.0,2.0,d,d,0.42412719991989434,1.0,3584.0
007,6,13.0,0.0,a,a,0.4486684000585228,1.0,3599.0
007,6,14.0,2.0,d,d,0.5910807000473142,1.0,3613.0
007,6,15.0,1.0,s,s,0.4505141000263393,1.0,3628.0
007,6,16.0,0.0,a,a,0.3406378000508994,1.0,3644.0
007,6,17.0,3.0,f,f,0.7988545999396592,1.0,3656.0
007,6,18.0,3.0,f,f,0.4342916999012232,1.0,3671.0
007,6,19.0,0.0,a,a,0.4045331999659538,1.0,3686.0
007,6,20.0,3.0,f,f,0.6303999000228941,1.0,3699.0
007,6,21.0,2.0,d,d,0.5148978000506759,1.0,3713.0
007,6,22.0,3.0,f,f,0.4758333000354469,1.0,3728.0
007,6,23.0,1.0,s,s,0.465828699991107,1.0,3743.0
007,6,24.0,0.0,a,a,0.41610080003738403,1.0,3758.0
007,6,25.0,0.0,a,a,0.3749969000928104,1.0,3774.0
007,6,26.0,2.0,d,d,0.9085278001148254,1.0,3784.0
007,6,27.0,1.0,s,s,0.3889725999906659,1.0,3800.0
007,6,28.0,0.0,a,a,0.359491900075227,1.0,3816.0
007,6,29.0,3.0,f,f,0.46977960015647113,1.0,3831.0
007,6,30.0,3.0,f,f,0.4169584000483155,1.0,3846.0
007,6,31.0,2.0,d,d,0.46085409983061254,1.0,3861.0
007,6,32.0,1.0,s,s,0.4007753999903798,1.0,3876.0
007,6,33.0,3.0,f,f,0.4509318000636995,1.0,3891.0
007,6,34.0,3.0,f,f,0.3526647000107914,1.0,3907.0
007,6,35.0,2.0,d,d,0.5152920000255108,1.0,3921.0
007,6,36.0,2.0,d,d,0.32832679990679026,1.0,3937.0
007,6,37.0,3.0,f,f,0.421770199900493,1.0,3952.0
007,6,38.0,1.0,s,s,0.522540699923411,1.0,3966.0
007,6,39.0,0.0,a,a,0.35226859990507364,1.0,3982.0
007,6,40.0,1.0,s,s,0.38617069995962083,1.0,3998.0
007,6,41.0,0.0,a,a,0.4461233001202345,1.0,4013.0
007,6,42.0,0.0,a,a,0.47435200004838407,1.0,4028.0
007,6,43.0,3.0,f,f,0.5387182999402285,1.0,4042.0
007,6,44.0,1.0,s,s,0.6729037999175489,1.0,4055.0
007,6,45.0,3.0,f,f,0.73619159986265,1.0,4067.0
007,6,46.0,0.0,a,a,0.43824289995245636,1.0,4082.0
007,6,47.0,0.0,a,s,0.2946152000222355,0.0,4082.0
007,6,48.0,0.0,a,a,0.39856710005551577,1.0,4098.0
007,7,1.0,3.0,f,f,0.41889240010641515,1.0,4113.0
007,7,2.0,3.0,f,f,0.29611649992875755,1.0,4130.0
007,7,3.0,1.0,s,s,0.37532979995012283,1.0,4146.0
007,7,4.0,1.0,s,s,0.3141391999088228,1.0,4162.0
007,7,5.0,0.0,a,a,0.41930500022135675,1.0,4177.0
007,7,6.0,2.0,d,d,0.837990399915725,1.0,4188.0
007,7,7.0,3.0,f,f,0.49793700012378395,1.0,4203.0
007,7,8.0,0.0,a,a,0.47226730012334883,1.0,4218.0
007,7,9.0,1.0,s,a,0.3888850000221282,0.0,4218.0
007,7,10.0,0.0,a,a,0.4740905000362545,1.0,4233.0
007,7,11.0,2.0,d,d,0.6587944000493735,1.0,4246.0
007,7,12.0,1.0,s,s,0.4872361000161618,1.0,4261.0
007,7,13.0,1.0,s,s,0.3186960997991264,1.0,4277.0
007,7,14.0,2.0,d,d,0.4683530000038445,1.0,4292.0
007,7,15.0,3.0,f,f,0.438904199982062,1.0,4307.0
007,7,16.0,3.0,f,f,0.4251757999882102,1.0,4322.0
007,7,17.0,1.0,s,s,0.39728909987024963,1.0,4338.0
007,7,18.0,2.0,d,d,0.5794352998491377,1.0,4352.0
007,7,19.0,1.0,s,s,0.3337926999665797,1.0,4368.0
007,7,20.0,0.0,a,a,0.356407199986279,1.0,4384.0
007,7,21.0,2.0,d,d,0.566099600167945,1.0,4398.0
007,7,22.0,3.0,f,f,0.45700849988497794,1.0,4413.0
007,7,23.0,0.0,a,a,0.4482148000970483,1.0,4428.0
007,7,24.0,3.0,f,f,0.5505426998715848,1.0,4442.0
007,7,25.0,1.0,s,a,0.27436989988200366,0.0,4442.0
007,7,26.0,2.0,d,s,0.5562432000879198,0.0,4442.0
007,7,27.0,2.0,d,d,0.17545460001565516,1.0,4460.0
007,7,28.0,0.0,a,s,0.42897399980574846,0.0,4460.0
007,7,29.0,2.0,d,d,1.0108080999925733,1.0,4470.0
007,7,30.0,3.0,f,f,0.4609644999727607,1.0,4485.0
007,7,31.0,1.0,s,s,0.4683552999049425,1.0,4500.0
007,7,32.0,3.0,f,f,0.5048061001580209,1.0,4514.0
007,7,33.0,1.0,s,s,0.3781528000254184,1.0,4530.0
007,7,34.0,0.0,a,a,0.30176980001851916,1.0,4546.0
007,7,35.0,2.0,d,s,0.7596619999967515,0.0,4546.0
007,7,36.0,3.0,f,f,0.39137179986573756,1.0,4562.0
007,7,37.0,2.0,d,s,0.36083669983781874,0.0,4562.0
007,7,38.0,2.0,d,s,0.45809109997935593,0.0,4562.0
007,7,39.0,0.0,a,a,0.5243307999335229,1.0,4576.0
007,7,40.0,2.0,d,d,1.4048929000273347,1.0,4586.0
007,7,41.0,0.0,a,a,0.4393839999102056,1.0,4601.0
007,7,42.0,0.0,a,a,0.32765220012515783,1.0,4617.0
007,7,43.0,0.0,a,a,0.2753574999514967,1.0,4634.0
007,7,44.0,2.0,d,s,0.5782907998654991,0.0,4634.0
007,7,45.0,0.0,a,a,0.5790122000034899,1.0,4648.0
007,7,46.0,3.0,f,f,0.45327410008758307,1.0,4663.0
007,7,47.0,0.0,a,a,0.6377598999533802,1.0,4676.0
007,7,48.0,2.0,d,d,1.5469951999839395,1.0,4686.0
007,8,1.0,3.0,f,f,0.4639671999029815,1.0,4701.0
007,8,2.0,2.0,d,d,0.48228990007191896,1.0,4716.0
007,8,3.0,0.0,a,a,0.46230400004424155,1.0,4731.0
007,8,4.0,1.0,s,s,0.7562067999970168,1.0,4743.0
007,8,5.0,2.0,d,d,0.3584029001649469,1.0,4759.0
007,8,6.0,0.0,a,a,0.44377260003238916,1.0,4774.0
007,8,7.0,3.0,f,f,0.5468399999663234,1.0,4788.0
007,8,8.0,0.0,a,a,0.46414939989335835,1.0,4803.0
007,8,9.0,2.0,d,d,0.5390514000318944,1.0,4817.0
007,8,10.0,1.0,s,d,0.3289026999846101,0.0,4817.0
007,8,11.0,3.0,f,s,0.21807659999467432,0.0,4817.0
007,8,12.0,0.0,a,a,0.5692910000216216,1.0,4831.0
007,8,13.0,3.0,f,f,0.7068014000542462,1.0,4843.0
007,8,14.0,2.0,d,d,0.4183215999510139,1.0,4858.0
007,8,15.0,0.0,a,a,0.5031185001134872,1.0,4872.0
007,8,16.0,1.0,s,s,0.40524009987711906,1.0,4887.0
007,8,17.0,2.0,d,d,0.3928606999106705,1.0,4903.0
007,8,18.0,0.0,a,a,0.3671413999982178,1.0,4919.0
007,8,19.0,3.0,f,f,0.5263437998946756,1.0,4933.0
007,8,20.0,0.0,a,a,0.4512670000549406,1.0,4948.0
007,8,21.0,2.0,d,d,0.5086791999638081,1.0,4962.0
007,8,22.0,1.0,s,s,0.48770739999599755,1.0,4977.0
007,8,23.0,3.0,f,f,0.47389090014621615,1.0,4992.0
007,8,24.0,0.0,a,a,0.3786166999489069,1.0,5008.0
007,8,25.0,3.0,f,f,0.4379132001195103,1.0,5023.0
007,8,26.0,2.0,d,d,0.5778332999907434,1.0,5037.0
007,8,27.0,0.0,a,a,0.5595001000910997,1.0,5051.0
007,8,28.0,1.0,s,s,0.30955480015836656,1.0,5067.0
007,8,29.0,2.0,d,d,0.31445139995776117,1.0,5083.0
007,8,30.0,0.0,a,s,0.38009009999223053,0.0,5083.0
007,8,31.0,3.0,f,f,0.5269716999027878,1.0,5097.0
007,8,32.0,0.0,a,a,0.3919144000392407,1.0,5113.0
007,8,33.0,2.0,d,d,0.6388272000476718,1.0,5126.0
007,8,34.0,1.0,s,s,0.5783051000908017,1.0,5140.0
007,8,35.0,3.0,f,f,0.5140048998873681,1.0,5154.0
007,8,36.0,0.0,a,a,0.43247080012224615,1.0,5169.0
007,8,37.0,3.0,f,f,0.45451100007630885,1.0,5184.0
007,8,38.0,2.0,d,s,0.37248479994013906,0.0,5184.0
007,8,39.0,0.0,a,a,0.6294535000342876,1.0,5197.0
007,8,40.0,1.0,s,s,0.585319799836725,1.0,5211.0
007,8,41.0,2.0,d,d,0.4001585999503732,1.0,5226.0
007,8,42.0,0.0,a,a,0.3950043998192996,1.0,5242.0
007,8,43.0,3.0,f,f,0.43285819981247187,1.0,5257.0
007,8,44.0,0.0,a,a,0.5543249000329524,1.0,5271.0
007,8,45.0,2.0,d,d,0.6206935998052359,1.0,5284.0
007,8,46.0,1.0,s,s,0.4639210000168532,1.0,5299.0
007,8,47.0,3.0,f,f,0.44321319996379316,1.0,5314.0
007,8,48.0,0.0,a,a,0.404358500149101,1.0,5329.0
007,awareness,,,,,y,,
007,awareness_guess,,,,,aasd,,
008,1,1.0,3.0,f,f,0.475813299883157,1.0,15.0
008,1,2.0,2.0,d,d,0.43788690003566444,1.0,30.0
008,1,3.0,0.0,a,a,0.44905860000289977,1.0,45.0
008,1,4.0,2.0,d,d,0.5842218000907451,1.0,59.0
008,1,5.0,3.0,f,f,0.5052845999598503,1.0,73.0
008,1,6.0,0.0,a,a,0.4111385000869632,1.0,88.0
008,1,7.0,2.0,d,d,0.5026845000684261,1.0,102.0
008,1,8.0,2.0,d,d,0.4855763001833111,1.0,117.0
008,1,9.0,0.0,a,a,0.43857360002584755,1.0,132.0
008,1,10.0,1.0,s,s,0.522522300016135,1.0,146.0
008,1,11.0,0.0,a,a,0.6066775000654161,1.0,159.0
008,1,12.0,2.0,d,d,0.7092536999844015,1.0,171.0
008,1,13.0,0.0,a,a,0.45249819988384843,1.0,186.0
008,1,14.0,1.0,s,s,0.5028194000478834,1.0,200.0
008,1,15.0,0.0,a,a,0.512972200056538,1.0,214.0
008,1,16.0,3.0,f,f,0.8156675000209361,1.0,225.0
008,1,17.0,2.0,d,d,0.42713179998099804,1.0,240.0
008,1,18.0,0.0,a,a,0.47782000014558434,1.0,255.0
008,1,19.0,0.0,a,a,0.40951979998499155,1.0,270.0
008,1,20.0,2.0,d,d,0.5016552000306547,1.0,284.0
008,1,21.0,0.0,a,a,0.4678892001975328,1.0,299.0
008,1,22.0,3.0,f,f,0.5569470999762416,1.0,313.0
008,1,23.0,2.0,d,d,0.5487187998369336,1.0,327.0
008,1,24.0,1.0,s,s,0.565429599955678,1.0,341.0
008,1,25.0,2.0,d,d,0.4842300999443978,1.0,356.0
008,1,26.0,0.0,a,a,0.4791699000634253,1.0,371.0
008,1,27.0,1.0,s,s,0.6764789000153542,1.0,384.0
008,1,28.0,1.0,s,s,0.39454060001298785,1.0,400.0
008,1,29.0,2.0,d,d,0.47590969991870224,1.0,415.0
008,1,30.0,1.0,s,s,0.43908279994502664,1.0,430.0
008,1,31.0,1.0,s,s,0.5172085000667721,1.0,444.0
008,1,32.0,3.0,f,f,0.4932709999848157,1.0,459.0
008,1,33.0,0.0,a,a,0.5058273000176996,1.0,473.0
008,1,34.0,0.0,a,a,0.4158149000722915,1.0,488.0
008,1,35.0,2.0,d,d,0.4834041001740843,1.0,503.0
008,1,36.0,0.0,a,a,0.5416920999996364,1.0,517.0
008,1,37.0,3.0,f,f,0.5497242000419647,1.0,531.0
008,1,38.0,1.0,s,s,0.5111243999563158,1.0,545.0
008,1,39.0,1.0,s,s,0.5801468000281602,1.0,559.0
008,1,40.0,3.0,f,f,0.5475297998636961,1.0,573.0
008,1,41.0,3.0,f,f,0.502230399986729,1.0,587.0
008,1,42.0,0.0,a,a,0.41231230017729104,1.0,602.0
008,1,43.0,0.0,a,a,0.4015872001182288,1.0,617.0
008,1,44.0,3.0,f,f,0.42652520001865923,1.0,632.0
008,1,45.0,2.0,d,d,0.5287868001032621,1.0,646.0
008,1,46.0,2.0,d,d,0.4727668999694288,1.0,661.0
008,1,47.0,1.0,s,s,0.421915200073272,1.0,676.0
008,1,48.0,0.0,a,a,0.4127456001006067,1.0,691.0
008,2,1.0,0.0,a,a,0.5357252999674529,1.0,705.0
008,2,2.0,2.0,d,d,0.4219412000384182,1.0,720.0
008,2,3.0,3.0,f,f,0.4491847001481801,1.0,735.0
008,2,4.0,1.0,s,s,0.42000430007465184,1.0,750.0
008,2,5.0,0.0,a,a,0.41628400003537536,1.0,765.0
008,2,6.0,3.0,f,f,0.481219100067392,1.0,780.0
008,2,7.0,2.0,d,d,0.38314579986035824,1.0,796.0
008,2,8.0,1.0,s,s,0.42130189994350076,1.0,811.0
008,2,9.0,3.0,f,f,0.48310890002176166,1.0,826.0
008,2,10.0,0.0,a,a,0.41167509998194873,1.0,841.0
008,2,11.0,1.0,s,s,0.3987334999255836,1.0,857.0
008,2,12.0,2.0,d,d,0.38517220015637577,1.0,873.0
008,2,13.0,0.0,a,a,0.3939798001665622,1.0,889.0
008,2,14.0,2.0,d,d,0.3815846999641508,1.0,905.0
008,2,15.0,3.0,f,f,0.36703940015286207,1.0,921.0
008,2,16.0,1.0,s,s,0.41523430007509887,1.0,936.0
008,2,17.0,0.0,a,a,0.522936100140214,1.0,950.0
008,2,18.0,3.0,f,f,0.42835850012488663,1.0,965.0
008,2,19.0,2.0,d,d,0.34611230017617345,1.0,981.0
008,2,20.0,1.0,s,s,0.5214163998607546,1.0,995.0
008,2,21.0,3.0,f,f,0.38446440012194216,1.0,1011.0
008,2,22.0,0.0,a,a,0.32147229998372495,1.0,1027.0
008,2,23.0,1.0,s,s,0.3399326999206096,1.0,1043.0
008,2,24.0,2.0,d,d,0.37446590000763535,1.0,1059.0
008,2,25.0,0.0,a,a,0.35651460010558367,1.0,1075.0
008,2,26.0,2.0,d,d,0.523354500066489,1.0,1089.0
008,2,27.0,3.0,f,f,0.44806219986639917,1.0,1104.0
008,2,28.0,1.0,s,s,0.35548219992779195,1.0,1120.0
008,2,29.0,0.0,a,a,0.3501150000374764,1.0,1136.0
008,2,30.0,3.0,f,f,0.48384250001981854,1.0,1151.0
008,2,31.0,2.0,d,d,0.3256165999919176,1.0,1167.0
008,2,32.0,1.0,s,s,0.3759736998472363,1.0,1183.0
008,2,33.0,3.0,f,f,0.41056589991785586,1.0,1198.0
008,2,34.0,0.0,a,a,0.39122270001098514,1.0,1214.0
008,2,35.0,1.0,s,s,0.4349923001136631,1.0,1229.0
008,2,36.0,2.0,d,d,0.46539959986694157,1.0,1244.0
008,2,37.0,0.0,a,a,0.4222490999381989,1.0,1259.0
008,2,38.0,2.0,d,d,0.40954179991967976,1.0,1274.0
008,2,39.0,3.0,f,f,0.3724639001302421,1.0,1290.0
008,2,40.0,1.0,s,s,0.628559400094673,1.0,1303.0
008,2,41.0,0.0,a,a,0.3935676999390125,1.0,1319.0
008,2,42.0,3.0,f,f,0.4932252001017332,1.0,1334.0
008,2,43.0,2.0,d,d,0.45129740005359054,1.0,1349.0
008,2,44.0,1.0,s,s,0.39587739994749427,1.0,1365.0
008,2,45.0,3.0,f,f,0.5633052000775933,1.0,1379.0
008,2,46.0,0.0,a,a,0.43403360014781356,1.0,1394.0
008,2,47.0,1.0,s,s,0.40437970007769763,1.0,1409.0
008,2,48.0,2.0,d,d,0.5043182999361306,1.0,1423.0
008,3,1.0,0.0,a,a,0.46168869989924133,1.0,1438.0
008,3,2.0,2.0,d,d,0.45923989987932146,1.0,1453.0
008,3,3.0,3.0,f,f,0.48746220022439957,1.0,1468.0
008,3,4.0,1.0,s,s,0.5043901999015361,1.0,1482.0
008,3,5.0,0.0,a,a,0.38236210006289184,1.0,1498.0
008,3,6.0,3.0,f,f,0.4845684999600053,1.0,1513.0
008,3,7.0,2.0,d,d,0.3634539002086967,1.0,1529.0
008,3,8.0,1.0,s,s,0.39290870004333556,1.0,1545.0
008,3,9.0,3.0,f,f,0.44868220016360283,1.0,1560.0
008,3,10.0,0.0,a,a,0.39000979997217655,1.0,1576.0
008,3,11.0,1.0,s,s,0.3551657998468727,1.0,1592.0
008,3,12.0,2.0,d,d,0.3478824000339955,1.0,1608.0
008,3,13.0,0.0,a,a,0.39040859998203814,1.0,1624.0
008,3,14.0,2.0,d,d,0.43082370003685355,1.0,1639.0
008,3,15.0,3.0,f,f,0.5569670998957008,1.0,1653.0
008,3,16.0,1.0,s,s,0.4261306000407785,1.0,1668.0
008,3,17.0,0.0,a,a,0.3527357999701053,1.0,1684.0
008,3,18.0,3.0,f,f,0.5869732999708503,1.0,1698.0
008,3,19.0,2.0,d,d,0.35654449998401105,1.0,1714.0
008,3,20.0,1.0,s,s,0.40125029999762774,1.0,1729.0
008,3,21.0,3.0,f,f,0.4333075999747962,1.0,1744.0
008,3,22.0,0.0,a,a,0.4366096002049744,1.0,1759.0
008,3,23.0,1.0,s,s,0.5172262000851333,1.0,1773.0
008,3,24.0,2.0,d,d,0.4432391000445932,1.0,1788.0
008,3,25.0,0.0,a,a,0.41678410000167787,1.0,1803.0
008,3,26.0,2.0,d,d,0.38144459994509816,1.0,1819.0
008,3,27.0,3.0,f,f,0.3910479999613017,1.0,1835.0
008,3,28.0,1.0,s,s,0.41165010002441704,1.0,1850.0
008,3,29.0,0.0,a,a,0.41343659977428615,1.0,1865.0
008,3,30.0,3.0,f,f,0.46498399996198714,1.0,1880.0
008,3,31.0,2.0,d,d,0.4398214998655021,1.0,1895.0
008,3,32.0,1.0,s,s,0.3880791999399662,1.0,1911.0
008,3,33.0,3.0,f,f,0.4156994998920709,1.0,1926.0
008,3,34.0,0.0,a,a,0.49796879990026355,1.0,1941.0
008,3,35.0,1.0,s,s,0.5003019999712706,1.0,1955.0
008,3,36.0,2.0,d,d,0.45370369986630976,1.0,1970.0
008,3,37.0,0.0,a,a,0.4489450000692159,1.0,1985.0
008,3,38.0,2.0,d,d,0.4479515999555588,1.0,2000.0
008,3,39.0,3.0,f,f,0.41858509997837245,1.0,2015.0
008,3,40.0,1.0,s,s,0.48074279981665313,1.0,2030.0
008,3,41.0,0.0,a,a,0.41006459994241595,1.0,2045.0
008,3,42.0,3.0,f,f,0.6070713999215513,1.0,2058.0
008,3,43.0,2.0,d,d,0.4120817999355495,1.0,2073.0
008,3,44.0,1.0,s,s,0.4762996998615563,1.0,2088.0
008,3,45.0,3.0,f,f,0.4458391999360174,1.0,2103.0
008,3,46.0,0.0,a,a,0.4331927001476288,1.0,2118.0
008,3,47.0,1.0,s,s,0.4609966999851167,1.0,2133.0
008,3,48.0,2.0,d,d,0.4633473998401314,1.0,2148.0
008,4,1.0,0.0,a,a,0.42159589985385537,1.0,2163.0
008,4,2.0,2.0,d,d,0.4591832000296563,1.0,2178.0
008,4,3.0,3.0,f,d,0.35531629994511604,0.0,2178.0
008,4,4.0,1.0,s,s,0.5604716001544148,1.0,2192.0
008,4,5.0,0.0,a,a,0.4376592000480741,1.0,2207.0
008,4,6.0,3.0,f,f,0.43285090010613203,1.0,2222.0
008,4,7.0,2.0,d,d,0.39735210011713207,1.0,2238.0
008,4,8.0,1.0,s,s,0.4239626999478787,1.0,2253.0
008,4,9.0,3.0,f,f,0.41207129997201264,1.0,2268.0
008,4,10.0,0.0,a,a,0.48395249992609024,1.0,2283.0
008,4,11.0,1.0,s,s,0.42164540011435747,1.0,2298.0
008,4,12.0,2.0,d,d,0.38483070000074804,1.0,2314.0
008,4,13.0,0.0,a,a,0.3665841999463737,1.0,2330.0
008,4,14.0,2.0,d,d,0.39286480005830526,1.0,2346.0
008,4,15.0,3.0,f,f,0.43607069994322956,1.0,2361.0
008,4,16.0,1.0,s,s,0.40088690002448857,1.0,2376.0
008,4,17.0,0.0,a,a,0.4020515999291092,1.0,2391.0
008,4,18.0,3.0,f,f,0.5196976000443101,1.0,2405.0
008,4,19.0,2.0,d,d,0.4571976999286562,1.0,2420.0
008,4,20.0,1.0,s,s,0.464504900155589,1.0,2435.0
008,4,21.0,3.0,f,f,0.44971579988487065,1.0,2450.0
008,4,22.0,0.0,a,a,0.43744929996319115,1.0,2465.0
008,4,23.0,1.0,s,s,0.43329499987885356,1.0,2480.0
008,4,24.0,2.0,d,d,0.46494809980504215,1.0,2495.0
008,4,25.0,0.0,a,a,0.3891191000584513,1.0,2511.0
008,4,26.0,2.0,d,d,0.4157201999332756,1.0,2526.0
008,4,27.0,3.0,f,f,0.4593466999940574,1.0,2541.0
008,4,28.0,1.0,s,s,0.39923790004104376,1.0,2557.0
008,4,29.0,0.0,a,a,0.400787599850446,1.0,2572.0
008,4,30.0,3.0,f,f,0.46959839994087815,1.0,2587.0
008,4,31.0,2.0,d,d,0.4197541999164969,1.0,2602.0
008,4,32.0,1.0,s,s,0.4372489999514073,1.0,2617.0
008,4,33.0,3.0,f,f,0.433923700125888,1.0,2632.0
008,4,34.0,0.0,a,a,0.41928880009800196,1.0,2647.0
008,4,35.0,1.0,s,s,0.44701260002329946,1.0,2662.0
008,4,36.0,2.0,d,d,0.5060056999791414,1.0,2676.0
008,4,37.0,0.0,a,a,0.41864809999242425,1.0,2691.0
008,4,38.0,2.0,d,d,0.4756887999828905,1.0,2706.0
008,4,39.0,3.0,f,f,0.487902200082317,1.0,2721.0
008,4,40.0,1.0,s,s,0.4265773999504745,1.0,2736.0
008,4,41.0,0.0,a,a,0.4497458999976516,1.0,2751.0
008,4,42.0,3.0,f,f,0.5001827001105994,1.0,2765.0
008,4,43.0,2.0,d,d,0.41322409990243614,1.0,2780.0
008,4,44.0,1.0,s,s,0.44019940006546676,1.0,2795.0
008,4,45.0,3.0,f,f,0.3974786000326276,1.0,2811.0
008,4,46.0,0.0,a,a,0.5028721999842674,1.0,2825.0
008,4,47.0,1.0,s,s,0.5610448000952601,1.0,2839.0
008,4,48.0,2.0,d,d,0.5282846998888999,1.0,2853.0
008,5,1.0,0.0,a,a,0.5358063001185656,1.0,2867.0
008,5,2.0,2.0,d,d,0.3854322999250144,1.0,2883.0
008,5,3.0,3.0,f,f,0.6044825999997556,1.0,2896.0
008,5,4.0,1.0,s,s,0.4300959000829607,1.0,2911.0
008,5,5.0,0.0,a,a,0.3737049999181181,1.0,2927.0
008,5,6.0,3.0,f,f,0.5192388000432402,1.0,2941.0
008,5,7.0,2.0,d,d,0.4243220000062138,1.0,2956.0
008,5,8.0,1.0,s,s,0.38199279992841184,1.0,2972.0
008,5,9.0,3.0,f,f,0.40931249991990626,1.0,2987.0
008,5,10.0,0.0,a,a,0.42831870005466044,1.0,3002.0
008,5,11.0,1.0,s,s,0.36989460000768304,1.0,3018.0
008,5,12.0,2.0,d,d,0.46078249998390675,1.0,3033.0
008,5,13.0,0.0,a,a,0.37338189990259707,1.0,3049.0
008,5,14.0,2.0,d,d,0.37798880017362535,1.0,3065.0
008,5,15.0,3.0,f,f,0.4042134000919759,1.0,3080.0
008,5,16.0,1.0,s,s,0.4438674000557512,1.0,3095.0
008,5,17.0,0.0,a,a,0.4257227999623865,1.0,3110.0
008,5,18.0,3.0,f,f,0.4778892998583615,1.0,3125.0
008,5,19.0,2.0,d,d,0.4955129998270422,1.0,3140.0
008,5,20.0,1.0,s,s,0.3759808000177145,1.0,3156.0
008,5,21.0,3.0,f,f,0.38485559984110296,1.0,3172.0
008,5,22.0,0.0,a,a,0.4330519000068307,1.0,3187.0
008,5,23.0,1.0,s,s,0.38534909998998046,1.0,3203.0
008,5,24.0,2.0,d,d,0.4321211001370102,1.0,3218.0
008,5,25.0,0.0,a,a,0.606849699979648,1.0,3231.0
008,5,26.0,2.0,d,d,0.4625260999891907,1.0,3246.0
008,5,27.0,3.0,f,f,0.4491163999773562,1.0,3261.0
008,5,28.0,1.0,s,s,0.36206039995886385,1.0,3277.0
008,5,29.0,0.0,a,a,0.4371640000026673,1.0,3292.0
008,5,30.0,3.0,f,f,0.39277610019780695,1.0,3308.0
008,5,31.0,2.0,d,d,0.3664510000962764,1.0,3324.0
008,5,32.0,1.0,s,s,0.3777972999960184,1.0,3340.0
008,5,33.0,3.0,f,f,0.37064370000734925,1.0,3356.0
008,5,34.0,0.0,a,a,0.44881030009128153,1.0,3371.0
008,5,35.0,1.0,s,s,0.35381549992598593,1.0,3387.0
008,5,36.0,2.0,d,d,0.47000750014558434,1.0,3402.0
008,5,37.0,0.0,a,a,0.435669899918139,1.0,3417.0
008,5,38.0,2.0,d,d,0.4590642999392003,1.0,3432.0
008,5,39.0,3.0,f,f,0.3886261999141425,1.0,3448.0
008,5,40.0,1.0,s,s,0.4422669999767095,1.0,3463.0
008,5,41.0,0.0,a,a,0.5166247999295592,1.0,3477.0
008,5,42.0,3.0,f,f,0.6541359000839293,1.0,3490.0
008,5,43.0,2.0,d,d,0.40920690004713833,1.0,3505.0
008,5,44.0,1.0,s,s,0.3570719000417739,1.0,3521.0
008,5,45.0,3.0,f,f,0.6348545998334885,1.0,3534.0
008,5,46.0,0.0,a,a,0.3454944998957217,1.0,3550.0
008,5,47.0,1.0,s,s,0.3735961001366377,1.0,3566.0
008,5,48.0,2.0,d,d,0.3037764001637697,1.0,3582.0
008,6,1.0,0.0,a,a,0.5258772999513894,1.0,3596.0
008,6,2.0,2.0,d,d,0.371886899927631,1.0,3612.0
008,6,3.0,1.0,s,s,0.45237810001708567,1.0,3627.0
008,6,4.0,1.0,s,s,0.314566400134936,1.0,3643.0
008,6,5.0,2.0,d,d,0.40809620008803904,1.0,3658.0
008,6,6.0,3.0,f,f,0.49000380001962185,1.0,3673.0
008,6,7.0,3.0,f,f,0.3703012000769377,1.0,3689.0
008,6,8.0,0.0,a,a,0.3744950999971479,1.0,3705.0
008,6,9.0,2.0,d,d,0.4717572999652475,1.0,3720.0
008,6,10.0,1.0,s,s,0.5212252999190241,1.0,3734.0
008,6,11.0,2.0,d,d,0.38898320007137954,1.0,3750.0
008,6,12.0,2.0,d,d,0.4274260001257062,1.0,3765.0
008,6,13.0,1.0,s,s,0.3576593999750912,1.0,3781.0
008,6,14.0,1.0,s,s,0.33497099997475743,1.0,3797.0
008,6,15.0,1.0,s,s,0.3662071998696774,1.0,3813.0
008,6,16.0,0.0,a,a,0.3681336999870837,1.0,3829.0
008,6,17.0,0.0,a,a,0.39508450007997453,1.0,3845.0
008,6,18.0,0.0,a,a,0.2880143001675606,1.0,3862.0
008,6,19.0,0.0,a,a,0.3549151001498103,1.0,3878.0
008,6,20.0,2.0,d,d,0.46897859987802804,1.0,3893.0
008,6,21.0,2.0,d,d,0.45233490015380085,1.0,3908.0
008,6,22.0,3.0,f,f,0.563476299867034,1.0,3922.0
008,6,23.0,3.0,f,f,0.3659863998182118,1.0,3938.0
008,6,24.0,2.0,d,d,0.45897700008936226,1.0,3953.0
008,6,25.0,3.0,f,d,0.11719370004720986,0.0,3953.0
008,6,26.0,3.0,f,f,0.8184742000885308,1.0,3964.0
008,6,27.0,3.0,f,f,0.41649400000460446,1.0,3979.0
008,6,28.0,0.0,a,a,0.47277319990098476,1.0,3994.0
008,6,29.0,0.0,a,a,0.376641099806875,1.0,4010.0
008,6,30.0,0.0,a,a,0.4168457000050694,1.0,4025.0
008,6,31.0,0.0,a,a,0.4011717999819666,1.0,4040.0
008,6,32.0,3.0,f,f,0.48564329999499023,1.0,4055.0
008,6,33.0,3.0,f,f,0.38791729998774827,1.0,4071.0
008,6,34.0,3.0,f,f,0.4734078000765294,1.0,4086.0
008,6,35.0,0.0,a,a,0.43814770015887916,1.0,4101.0
008,6,36.0,2.0,d,d,0.618354800157249,1.0,4114.0
008,6,37.0,0.0,a,a,0.4490451000165194,1.0,4129.0
008,6,38.0,1.0,s,s,0.6333828000351787,1.0,4142.0
008,6,39.0,3.0,f,f,0.5102313999086618,1.0,4156.0
008,6,40.0,0.0,a,a,0.44520159997045994,1.0,4171.0
008,6,41.0,0.0,a,a,0.41513710003346205,1.0,4186.0
008,6,42.0,0.0,a,a,0.35309040010906756,1.0,4202.0
008,6,43.0,0.0,a,a,0.6016446000430733,1.0,4215.0
008,6,44.0,2.0,d,d,0.5098554999567568,1.0,4229.0
008,6,45.0,1.0,s,s,0.45735769998282194,1.0,4244.0
008,6,46.0,2.0,d,d,0.40714229992590845,1.0,4259.0
008,6,47.0,3.0,f,f,0.4443057000171393,1.0,4274.0
008,6,48.0,0.0,a,a,0.3749487998429686,1.0,4290.0
008,7,1.0,1.0,s,s,0.49797469982877374,1.0,4305.0
008,7,2.0,2.0,d,d,0.29404369997791946,1.0,4322.0
008,7,3.0,2.0,d,d,0.25746010011062026,1.0,4339.0
008,7,4.0,1.0,s,s,0.40299750003032386,1.0,4354.0
008,7,5.0,2.0,d,d,0.3627379999961704,1.0,4370.0
008,7,6.0,3.0,f,f,0.37808210006915033,1.0,4386.0
008,7,7.0,2.0,d,d,0.4861623998731375,1.0,4401.0
008,7,8.0,3.0,f,f,0.44172460003755987,1.0,4416.0
008,7,9.0,3.0,f,f,0.5164814000017941,1.0,4430.0
008,7,10.0,3.0,f,f,0.3263930999673903,1.0,4446.0
008,7,11.0,3.0,f,f,0.34415300004184246,1.0,4462.0
008,7,12.0,1.0,s,s,0.45074980007484555,1.0,4477.0
008,7,13.0,1.0,s,s,0.30722850002348423,1.0,4493.0
008,7,14.0,1.0,s,s,0.2956760001834482,1.0,4510.0
008,7,15.0,0.0,a,a,0.3826842999551445,1.0,4526.0
008,7,16.0,2.0,d,d,0.46846490004099905,1.0,4541.0
008,7,17.0,1.0,s,s,0.49662230000831187,1.0,4556.0
008,7,18.0,2.0,d,d,0.3473310999106616,1.0,4572.0
008,7,19.0,1.0,s,s,0.3687305999919772,1.0,4588.0
008,7,20.0,0.0,a,a,0.4319029999896884,1.0,4603.0
008,7,21.0,2.0,d,d,0.45823469990864396,1.0,4618.0
008,7,22.0,0.0,a,a,0.3471219998318702,1.0,4634.0
008,7,23.0,3.0,f,f,0.5471715000458062,1.0,4648.0
008,7,24.0,3.0,f,f,0.34829579992219806,1.0,4664.0
008,7,25.0,3.0,f,f,0.36302189994603395,1.0,4680.0
008,7,26.0,3.0,f,f,0.3590166000649333,1.0,4696.0
008,7,27.0,1.0,s,s,0.6406576000154018,1.0,4709.0
008,7,28.0,2.0,d,d,0.499719699844718,1.0,4724.0
008,7,29.0,1.0,s,s,0.38211849983781576,1.0,4740.0
008,7,30.0,2.0,d,d,0.27900229999795556,1.0,4757.0
008,7,31.0,3.0,f,f,0.446205300046131,1.0,4772.0
008,7,32.0,2.0,d,d,0.32857939996756613,1.0,4788.0
008,7,33.0,3.0,f,f,0.5259974000509828,1.0,4802.0
008,7,34.0,3.0,f,f,0.4241831998806447,1.0,4817.0
008,7,35.0,2.0,d,d,0.4013414999935776,1.0,4832.0
008,7,36.0,0.0,a,a,0.4500998998992145,1.0,4847.0
008,7,37.0,3.0,f,f,0.44466099981218576,1.0,4862.0
008,7,38.0,2.0,d,d,0.6012641999404877,1.0,4875.0
008,7,39.0,1.0,s,s,0.38077869988046587,1.0,4891.0
008,7,40.0,1.0,s,s,0.44244210002943873,1.0,4906.0
008,7,41.0,3.0,f,f,0.46004500007256866,1.0,4921.0
008,7,42.0,2.0,d,d,0.5282606999389827,1.0,4935.0
008,7,43.0,1.0,s,s,0.3593115000985563,1.0,4951.0
008,7,44.0,3.0,f,f,0.4692419001366943,1.0,4966.0
008,7,45.0,1.0,s,s,0.2992819999344647,1.0,4983.0
008,7,46.0,0.0,a,a,0.5893180998973548,1.0,4997.0
008,7,47.0,1.0,s,s,0.3987989998422563,1.0,5013.0
008,7,48.0,3.0,f,f,0.3794499000068754,1.0,5029.0
008,8,1.0,3.0,f,f,0.5714984000660479,1.0,5043.0
008,8,2.0,2.0,d,d,0.39934280002489686,1.0,5059.0
008,8,3.0,0.0,a,a,0.545369999948889,1.0,5073.0
008,8,4.0,1.0,s,s,0.29033429990522563,1.0,5090.0
008,8,5.0,2.0,d,d,0.3581133000552654,1.0,5106.0
008,8,6.0,0.0,a,a,0.40302229998633265,1.0,5121.0
008,8,7.0,3.0,f,f,0.649960600072518,1.0,5134.0
008,8,8.0,0.0,a,a,0.40545619977638125,1.0,5149.0
008,8,9.0,2.0,d,d,0.3614583997987211,1.0,5165.0
008,8,10.0,1.0,s,s,0.34905640012584627,1.0,5181.0
008,8,11.0,3.0,f,f,0.4414585002232343,1.0,5196.0
008,8,12.0,0.0,a,a,0.4344189001712948,1.0,5211.0
008,8,13.0,3.0,f,f,0.3990247999317944,1.0,5227.0
008,8,14.0,2.0,d,d,0.365351099986583,1.0,5243.0
008,8,15.0,0.0,a,a,0.3808583999052644,1.0,5259.0
008,8,16.0,1.0,s,s,0.39792450005188584,1.0,5275.0
008,8,17.0,2.0,d,d,0.3640928999520838,1.0,5291.0
008,8,18.0,0.0,a,a,0.406494100112468,1.0,5306.0
008,8,19.0,3.0,f,f,0.5426598000340164,1.0,5320.0
008,8,20.0,0.0,a,a,0.44196449988521636,1.0,5335.0
008,8,21.0,2.0,d,d,0.38340719998814166,1.0,5351.0
008,8,22.0,1.0,s,s,0.44016349990852177,1.0,5366.0
008,8,23.0,3.0,f,f,0.5950639999937266,1.0,5380.0
008,8,24.0,0.0,a,a,0.4362286999821663,1.0,5395.0
008,8,25.0,3.0,f,f,0.5105873998254538,1.0,5409.0
008,8,26.0,2.0,d,d,0.32358379987999797,1.0,5425.0
008,8,27.0,0.0,a,a,0.42627050005830824,1.0,5440.0
008,8,28.0,1.0,s,s,0.3939062999561429,1.0,5456.0
008,8,29.0,2.0,d,d,0.5121466999407858,1.0,5470.0
008,8,30.0,0.0,a,a,0.44708599988371134,1.0,5485.0
008,8,31.0,3.0,f,f,0.5482055998872966,1.0,5499.0
008,8,32.0,0.0,a,a,0.40869530010968447,1.0,5514.0
008,8,33.0,2.0,d,d,0.47675049980171025,1.0,5529.0
008,8,34.0,1.0,s,s,0.42012570006772876,1.0,5544.0
008,8,35.0,3.0,f,f,0.49922399991191924,1.0,5559.0
008,8,36.0,0.0,a,a,0.41246369993314147,1.0,5574.0
008,8,37.0,3.0,f,f,0.43749199993908405,1.0,5589.0
008,8,38.0,2.0,d,d,0.39708640007302165,1.0,5605.0
008,8,39.0,0.0,a,a,0.4737158000934869,1.0,5620.0
008,8,40.0,1.0,s,s,0.6586281999479979,1.0,5633.0
008,8,41.0,2.0,d,d,0.3696320001035929,1.0,5649.0
008,8,42.0,0.0,a,a,0.4616282000206411,1.0,5664.0
008,8,43.0,3.0,f,f,0.40553840016946197,1.0,5679.0
008,8,44.0,0.0,a,a,0.3786327000707388,1.0,5695.0
008,8,45.0,2.0,d,d,0.48649449995718896,1.0,5710.0
008,8,46.0,1.0,s,s,0.5267078001052141,1.0,5724.0
008,8,47.0,3.0,f,f,0.48127170000225306,1.0,5739.0
008,8,48.0,0.0,a,a,0.3592757999431342,1.0,5755.0
008,awareness,,,,,n,,
008,awareness_guess,,,,,,,
009,1,1.0,2.0,d,d,0.45992729999125004,1.0,15.0
009,1,2.0,2.0,d,d,0.4282043999992311,1.0,30.0
009,1,3.0,1.0,s,s,0.4499630001373589,1.0,45.0
009,1,4.0,1.0,s,s,0.6422737000975758,1.0,58.0
009,1,5.0,3.0,f,f,0.6674248999916017,1.0,71.0
009,1,6.0,0.0,a,a,0.5833278999198228,1.0,85.0
009,1,7.0,0.0,a,a,0.47609890019521117,1.0,100.0
009,1,8.0,2.0,d,d,0.5581873999908566,1.0,114.0
009,1,9.0,2.0,d,d,0.5346596001181751,1.0,128.0
009,1,10.0,1.0,s,s,0.5193384001031518,1.0,142.0
009,1,11.0,3.0,f,f,1.2280785001348704,1.0,152.0
009,1,12.0,1.0,s,s,0.7060893999878317,1.0,164.0
009,1,13.0,2.0,d,d,0.5023448001593351,1.0,178.0
009,1,14.0,0.0,a,a,0.4931254000402987,1.0,193.0
009,1,15.0,3.0,f,f,0.5894782000686973,1.0,207.0
009,1,16.0,1.0,s,s,0.5578625998459756,1.0,221.0
009,1,17.0,3.0,f,f,0.6713184998370707,1.0,234.0
009,1,18.0,0.0,a,a,0.47018219996243715,1.0,249.0
009,1,19.0,3.0,f,f,0.4400565999094397,1.0,264.0
009,1,20.0,2.0,d,d,0.5396240998525172,1.0,278.0
009,1,21.0,1.0,s,s,0.4753109999001026,1.0,293.0
009,1,22.0,3.0,f,f,0.5825382000766695,1.0,307.0
009,1,23.0,2.0,d,d,0.5260836998932064,1.0,321.0
009,1,24.0,2.0,d,d,0.44272940000519156,1.0,336.0
009,1,25.0,1.0,s,s,0.42349250009283423,1.0,351.0
009,1,26.0,3.0,f,f,0.47157159983180463,1.0,366.0
009,1,27.0,0.0,a,a,0.5787604998331517,1.0,380.0
009,1,28.0,1.0,s,s,0.5302354998420924,1.0,394.0
009,1,29.0,0.0,a,a,0.45646000001579523,1.0,409.0
009,1,30.0,1.0,s,s,0.6446239000651985,1.0,422.0
009,1,31.0,0.0,a,a,0.34947820007801056,1.0,438.0
009,1,32.0,3.0,f,f,0.6301969001069665,1.0,451.0
009,1,33.0,1.0,s,s,0.619640399934724,1.0,464.0
009,1,34.0,3.0,f,f,0.5770791999530047,1.0,478.0
009,1,35.0,1.0,s,s,0.5016415000427514,1.0,492.0
009,1,36.0,2.0,d,d,0.48835460003465414,1.0,507.0
009,1,37.0,1.0,s,s,0.5456601998303086,1.0,521.0
009,1,38.0,1.0,s,s,0.44772320007905364,1.0,536.0
009,1,39.0,0.0,a,a,0.4505721000023186,1.0,551.0
009,1,40.0,2.0,d,d,0.6070472998544574,1.0,564.0
009,1,41.0,2.0,d,d,0.547384399920702,1.0,578.0
009,1,42.0,2.0,d,d,1.0596909001469612,1.0,588.0
009,1,43.0,3.0,f,f,0.478801499819383,1.0,603.0
009,1,44.0,2.0,d,d,0.48170520015992224,1.0,618.0
009,1,45.0,0.0,a,a,0.48143870010972023,1.0,633.0
009,1,46.0,0.0,a,a,0.6209697001613677,1.0,646.0
009,1,47.0,0.0,a,a,0.549281100044027,1.0,660.0
009,1,48.0,0.0,a,a,0.5606261999346316,1.0,674.0
009,2,1.0,0.0,a,a,0.4148566999938339,1.0,689.0
009,2,2.0,2.0,d,d,0.6042186000850052,1.0,702.0
009,2,3.0,3.0,f,f,0.5488321001175791,1.0,716.0
009,2,4.0,1.0,s,s,0.5580436999443918,1.0,730.0
009,2,5.0,0.0,a,a,0.44174630008637905,1.0,745.0
009,2,6.0,3.0,f,f,0.7589181000366807,1.0,757.0
009,2,7.0,2.0,d,d,0.48784890002571046,1.0,772.0
009,2,8.0,1.0,s,s,0.5808289998676628,1.0,786.0
009,2,9.0,3.0,f,f,0.5509901000186801,1.0,800.0
009,2,10.0,0.0,a,a,0.4618670998606831,1.0,815.0
009,2,11.0,1.0,s,s,0.586005600169301,1.0,829.0
009,2,12.0,2.0,d,d,0.45351869985461235,1.0,844.0
009,2,13.0,0.0,a,a,0.3990386000368744,1.0,860.0
009,2,14.0,2.0,d,d,0.46292770002037287,1.0,875.0
009,2,15.0,3.0,f,f,0.48869389994069934,1.0,890.0
009,2,16.0,1.0,s,s,0.6537528999615461,1.0,903.0
009,2,17.0,0.0,a,a,0.373345100088045,1.0,919.0
009,2,18.0,3.0,f,f,0.573141299886629,1.0,933.0
009,2,19.0,2.0,d,d,0.3764214999973774,1.0,949.0
009,2,20.0,1.0,s,s,0.41359769995324314,1.0,964.0
009,2,21.0,3.0,f,f,0.5098401000723243,1.0,978.0
009,2,22.0,0.0,a,a,0.477824600180611,1.0,993.0
009,2,23.0,1.0,s,s,0.5445200998801738,1.0,1007.0
009,2,24.0,2.0,d,d,0.5034827999770641,1.0,1021.0
009,2,25.0,0.0,a,a,0.43400399992242455,1.0,1036.0
009,2,26.0,2.0,d,d,0.5840175000485033,1.0,1050.0
009,2,27.0,3.0,f,f,0.524087600177154,1.0,1064.0
009,2,28.0,1.0,s,d,0.474326099967584,0.0,1064.0
009,2,29.0,0.0,a,a,0.6789059001021087,1.0,1077.0
009,2,30.0,3.0,f,f,0.9295858000405133,1.0,1087.0
009,2,31.0,2.0,d,d,0.6014370999764651,1.0,1100.0
009,2,32.0,1.0,s,s,0.4419617000967264,1.0,1115.0
009,2,33.0,3.0,f,f,0.636178300017491,1.0,1128.0
009,2,34.0,0.0,a,a,0.7395972998347133,1.0,1140.0
009,2,35.0,1.0,s,s,0.8484423998743296,1.0,1151.0
009,2,36.0,2.0,d,d,0.42601300007663667,1.0,1166.0
009,2,37.0,0.0,a,a,0.41188679984770715,1.0,1181.0
009,2,38.0,2.0,d,d,0.6425014999695122,1.0,1194.0
009,2,39.0,3.0,f,f,0.4944690999109298,1.0,1209.0
009,2,40.0,1.0,s,s,0.5355118000879884,1.0,1223.0
009,2,41.0,0.0,a,a,0.4051151000894606,1.0,1238.0
009,2,42.0,3.0,f,f,0.47502629994414747,1.0,1253.0
009,2,43.0,2.0,d,d,0.7028252000454813,1.0,1265.0
009,2,44.0,1.0,s,s,0.44907990004867315,1.0,1280.0
009,2,45.0,3.0,f,f,0.5561975000891834,1.0,1294.0
009,2,46.0,0.0,a,a,0.4011093000881374,1.0,1309.0
009,2,47.0,1.0,s,s,0.47746780002489686,1.0,1324.0
009,2,48.0,2.0,d,d,0.4497354000341147,1.0,1339.0
009,3,1.0,0.0,a,a,0.551602000137791,1.0,1353.0
009,3,2.0,2.0,d,d,0.5342101000715047,1.0,1367.0
009,3,3.0,3.0,f,f,0.6088179000653327,1.0,1380.0
009,3,4.0,1.0,s,s,0.45282160001806915,1.0,1395.0
009,3,5.0,0.0,a,a,0.3893162999302149,1.0,1411.0
009,3,6.0,3.0,f,f,0.573805799940601,1.0,1425.0
009,3,7.0,2.0,d,d,0.4330953999888152,1.0,1440.0
009,3,8.0,1.0,s,s,0.40730020008049905,1.0,1455.0
009,3,9.0,3.0,f,f,0.44783829990774393,1.0,1470.0
009,3,10.0,0.0,a,a,0.44957249984145164,1.0,1485.0
009,3,11.0,1.0,s,s,0.6005669001024216,1.0,1498.0
009,3,12.0,2.0,d,d,0.49232190009206533,1.0,1513.0
009,3,13.0,0.0,a,a,0.4034720999188721,1.0,1528.0
009,3,14.0,2.0,d,d,0.8693487998098135,1.0,1539.0
009,3,15.0,3.0,f,f,0.4620542998891324,1.0,1554.0
009,3,16.0,1.0,s,s,0.554705899907276,1.0,1568.0
009,3,17.0,0.0,a,a,0.40617590001784265,1.0,1583.0
009,3,18.0,3.0,f,f,0.564306000014767,1.0,1597.0
009,3,19.0,2.0,d,d,0.40932760015130043,1.0,1612.0
009,3,20.0,1.0,s,s,0.5307879999745637,1.0,1626.0
009,3,21.0,3.0,f,f,0.8545739001128823,1.0,1637.0
009,3,22.0,0.0,a,a,0.46718690008856356,1.0,1652.0
009,3,23.0,1.0,s,s,0.5652018000837415,1.0,1666.0
009,3,24.0,2.0,d,d,0.5381608000025153,1.0,1680.0
009,3,25.0,0.0,a,a,0.4414185998030007,1.0,1695.0
009,3,26.0,2.0,d,d,0.46769679989665747,1.0,1710.0
009,3,27.0,3.0,f,f,0.5210508001036942,1.0,1724.0
009,3,28.0,1.0,s,s,0.6075820000842214,1.0,1737.0
009,3,29.0,0.0,a,a,0.4291488998569548,1.0,1752.0
009,3,30.0,3.0,f,f,0.5919698001816869,1.0,1766.0
009,3,31.0,2.0,d,d,0.5589844998903573,1.0,1780.0
009,3,32.0,1.0,s,s,0.4764608999248594,1.0,1795.0
009,3,33.0,3.0,f,f,0.5141076999716461,1.0,1809.0
009,3,34.0,0.0,a,a,0.40531729999929667,1.0,1824.0
009,3,35.0,1.0,s,s,0.573647900018841,1.0,1838.0
009,3,36.0,2.0,d,d,0.6068820001091808,1.0,1851.0
009,3,37.0,0.0,a,a,0.41055140015669167,1.0,1866.0
009,3,38.0,2.0,d,d,0.6134652998298407,1.0,1879.0
009,3,39.0,3.0,f,f,0.5095197998452932,1.0,1893.0
009,3,40.0,1.0,s,s,0.8086822000332177,1.0,1904.0
009,3,41.0,0.0,a,a,0.3963140998966992,1.0,1920.0
009,3,42.0,3.0,f,f,0.5849314001388848,1.0,1934.0
009,3,43.0,2.0,d,d,0.5678638000972569,1.0,1948.0
009,3,44.0,1.0,s,s,0.5884967998135835,1.0,1962.0
009,3,45.0,3.0,f,f,0.5909589000511914,1.0,1976.0
009,3,46.0,0.0,a,a,0.49999579996801913,1.0,1991.0
009,3,47.0,1.0,s,s,0.7964994001667947,1.0,2003.0
009,3,48.0,2.0,d,d,0.6956980999093503,1.0,2016.0
009,4,1.0,0.0,a,a,0.49000270012766123,1.0,2031.0
009,4,2.0,2.0,d,d,0.579113099956885,1.0,2045.0
009,4,3.0,3.0,f,f,0.5453736998606473,1.0,2059.0
009,4,4.0,1.0,s,s,0.47433420014567673,1.0,2074.0
009,4,5.0,0.0,a,a,0.42719529988244176,1.0,2089.0
009,4,6.0,3.0,f,f,0.6551913998555392,1.0,2102.0
009,4,7.0,2.0,d,d,0.4173315998632461,1.0,2117.0
009,4,8.0,1.0,s,s,0.43524379981681705,1.0,2132.0
009,4,9.0,3.0,f,f,0.44643429992720485,1.0,2147.0
009,4,10.0,0.0,a,a,0.42412869981490076,1.0,2162.0
009,4,11.0,1.0,s,s,0.5585833000950515,1.0,2176.0
009,4,12.0,2.0,d,d,0.41802119999192655,1.0,2191.0
009,4,13.0,0.0,a,a,0.43879720009863377,1.0,2206.0
009,4,14.0,2.0,d,d,0.5867286999709904,1.0,2220.0
009,4,15.0,3.0,f,f,0.3446824001148343,1.0,2236.0
009,4,16.0,1.0,s,s,0.5020604999735951,1.0,2250.0
009,4,17.0,0.0,a,a,0.43105879984796047,1.0,2265.0
009,4,18.0,3.0,f,f,0.5135221998207271,1.0,2279.0
009,4,19.0,2.0,d,d,0.4662663000635803,1.0,2294.0
009,4,20.0,1.0,s,s,0.4905161999631673,1.0,2309.0
009,4,21.0,3.0,f,f,0.4547063000500202,1.0,2324.0
009,4,22.0,0.0,a,a,0.4057857000734657,1.0,2339.0
009,4,23.0,1.0,s,s,0.452054199995473,1.0,2354.0
009,4,24.0,2.0,d,d,0.5167199999559671,1.0,2368.0
009,4,25.0,0.0,a,a,0.6731491000391543,1.0,2381.0
009,4,26.0,2.0,d,d,0.7571133999153972,1.0,2393.0
009,4,27.0,3.0,f,f,0.7373311999253929,1.0,2405.0
009,4,28.0,1.0,s,s,0.4881892001722008,1.0,2420.0
009,4,29.0,0.0,a,a,0.44254829990677536,1.0,2435.0
009,4,30.0,3.0,f,f,0.5162442999426275,1.0,2449.0
009,4,31.0,2.0,d,d,0.4468850998673588,1.0,2464.0
009,4,32.0,1.0,s,s,0.4390768997836858,1.0,2479.0
009,4,33.0,3.0,f,f,0.5332426000386477,1.0,2493.0
009,4,34.0,0.0,a,a,0.3826081999577582,1.0,2509.0
009,4,35.0,1.0,s,d,0.3606159999035299,0.0,2509.0
009,4,36.0,2.0,d,d,0.6946483999490738,1.0,2522.0
009,4,37.0,0.0,a,a,0.44285320001654327,1.0,2537.0
009,4,38.0,2.0,d,d,0.5180348998401314,1.0,2551.0
009,4,39.0,3.0,f,f,0.5534308000933379,1.0,2565.0
009,4,40.0,1.0,s,s,0.8316890001296997,1.0,2576.0
009,4,41.0,0.0,a,a,0.3628050999250263,1.0,2592.0
009,4,42.0,3.0,f,f,0.5672744000330567,1.0,2606.0
009,4,43.0,2.0,d,d,0.5821084999479353,1.0,2620.0
009,4,44.0,1.0,s,s,0.5069575998932123,1.0,2634.0
009,4,45.0,3.0,f,f,0.5177460999693722,1.0,2648.0
009,4,46.0,0.0,a,a,0.43054119986481965,1.0,2663.0
009,4,47.0,1.0,s,s,0.6259027000050992,1.0,2676.0
009,4,48.0,2.0,d,d,0.7072693000081927,1.0,2688.0
009,5,1.0,0.0,a,a,0.4471448000986129,1.0,2703.0
009,5,2.0,2.0,d,d,0.5391433998011053,1.0,2717.0
009,5,3.0,3.0,f,f,0.4804299999959767,1.0,2732.0
009,5,4.0,1.0,s,s,0.48624979984015226,1.0,2747.0
009,5,5.0,0.0,a,a,0.4262254999484867,1.0,2762.0
009,5,6.0,3.0,f,f,0.45231620012782514,1.0,2777.0
009,5,7.0,2.0,d,d,0.4102445999160409,1.0,2792.0
009,5,8.0,1.0,s,s,0.3353939999360591,1.0,2808.0
009,5,9.0,3.0,f,f,0.4663759001996368,1.0,2823.0
009,5,10.0,0.0,a,a,0.4006324000656605,1.0,2838.0
009,5,11.0,1.0,s,s,0.41107460018247366,1.0,2853.0
009,5,12.0,2.0,d,d,0.6137573001906276,1.0,2866.0
009,5,13.0,0.0,a,a,0.4216737998649478,1.0,2881.0
009,5,14.0,2.0,d,d,0.6263252999633551,1.0,2894.0
009,5,15.0,3.0,f,f,0.431645100004971,1.0,2909.0
009,5,16.0,1.0,s,s,0.46089639980345964,1.0,2924.0
009,5,17.0,0.0,a,a,0.5171536998823285,1.0,2938.0
009,5,18.0,3.0,f,f,0.4545971001498401,1.0,2953.0
009,5,19.0,2.0,d,d,0.5211634000297636,1.0,2967.0
009,5,20.0,1.0,s,s,0.8119846999179572,1.0,2978.0
009,5,21.0,3.0,f,f,0.4404680000152439,1.0,2993.0
009,5,22.0,0.0,a,a,0.43474970012903214,1.0,3008.0
009,5,23.0,1.0,s,s,0.9727549001108855,1.0,3018.0
009,5,24.0,2.0,d,d,0.5669493000023067,1.0,3032.0
009,5,25.0,0.0,a,a,0.4164026998914778,1.0,3047.0
009,5,26.0,2.0,d,d,0.5522271001245826,1.0,3061.0
009,5,27.0,3.0,f,f,0.4363401001319289,1.0,3076.0
009,5,28.0,1.0,s,s,0.6130385000724345,1.0,3089.0
009,5,29.0,0.0,a,a,0.403898699907586,1.0,3104.0
009,5,30.0,3.0,f,f,0.472245599841699,1.0,3119.0
009,5,31.0,2.0,d,d,0.4352251999080181,1.0,3134.0
009,5,32.0,1.0,s,s,0.4602770998608321,1.0,3149.0
009,5,33.0,3.0,f,f,0.6917683000210673,1.0,3162.0
009,5,34.0,0.0,a,a,0.5877570000011474,1.0,3176.0
009,5,35.0,1.0,s,s,0.7161399000324309,1.0,3188.0
009,5,36.0,2.0,d,d,0.4163471001666039,1.0,3203.0
009,5,37.0,0.0,a,a,0.4270381999667734,1.0,3218.0
009,5,38.0,2.0,d,d,0.45792379998601973,1.0,3233.0
009,5,39.0,3.0,f,f,0.39097269997000694,1.0,3249.0
009,5,40.0,1.0,s,d,0.35370760015212,0.0,3249.0
009,5,41.0,0.0,a,a,0.7062921999022365,1.0,3261.0
009,5,42.0,3.0,f,f,0.7751356000080705,1.0,3273.0
009,5,43.0,2.0,d,d,0.7282200998160988,1.0,3285.0
009,5,44.0,1.0,s,s,0.8453955999575555,1.0,3296.0
009,5,45.0,3.0,f,f,0.8974724998697639,1.0,3307.0
009,5,46.0,0.0,a,a,0.4386730999685824,1.0,3322.0
009,5,47.0,1.0,s,s,0.8756214999593794,1.0,3333.0
009,5,48.0,2.0,d,d,0.6492080998141319,1.0,3346.0
009,6,1.0,1.0,s,s,0.5375149000901729,1.0,3360.0
009,6,2.0,0.0,a,a,0.38919729995541275,1.0,3376.0
009,6,3.0,2.0,d,d,0.5840396001003683,1.0,3390.0
009,6,4.0,2.0,d,d,0.37709510000422597,1.0,3406.0
009,6,5.0,2.0,d,d,0.36619600001722574,1.0,3422.0
009,6,6.0,2.0,d,d,0.42455939995124936,1.0,3437.0
009,6,7.0,3.0,f,f,0.5092303000856191,1.0,3451.0
009,6,8.0,3.0,f,f,0.4309217999689281,1.0,3466.0
009,6,9.0,3.0,f,f,0.4014856000430882,1.0,3481.0
009,6,10.0,3.0,f,f,0.4497557000722736,1.0,3496.0
009,6,11.0,0.0,a,a,0.4591590999625623,1.0,3511.0
009,6,12.0,3.0,f,f,0.47151549998670816,1.0,3526.0
009,6,13.0,1.0,s,s,0.42496099998243153,1.0,3541.0
009,6,14.0,3.0,f,f,0.7543717999942601,1.0,3553.0
009,6,15.0,3.0,f,f,0.4203603998757899,1.0,3568.0
009,6,16.0,3.0,f,f,0.653686499921605,1.0,3581.0
009,6,17.0,1.0,s,s,0.4546943998429924,1.0,3596.0
009,6,18.0,0.0,a,a,0.40879329992458224,1.0,3611.0
009,6,19.0,3.0,f,f,0.4289927000645548,1.0,3626.0
009,6,20.0,1.0,s,s,0.37024040007963777,1.0,3642.0
009,6,21.0,3.0,f,f,0.4585762999486178,1.0,3657.0
009,6,22.0,2.0,d,d,0.5878904999699444,1.0,3671.0
009,6,23.0,3.0,f,f,0.4855883999262005,1.0,3686.0
009,6,24.0,3.0,f,f,0.4326804999727756,1.0,3701.0
009,6,25.0,2.0,d,d,0.7006295998580754,1.0,3713.0
009,6,26.0,1.0,s,s,0.7180649000220001,1.0,3725.0
009,6,27.0,3.0,f,f,0.45553320017643273,1.0,3740.0
009,6,28.0,1.0,s,a,0.6304500000551343,0.0,3740.0
009,6,29.0,3.0,f,f,0.8941753001417965,1.0,3751.0
009,6,30.0,0.0,a,a,1.0985971998889,1.0,3761.0
009,6,31.0,2.0,d,d,0.6975862998515368,1.0,3774.0
009,6,32.0,0.0,a,a,0.3763790999073535,1.0,3790.0
009,6,33.0,0.0,a,a,0.5187433999963105,1.0,3804.0
009,6,34.0,2.0,d,d,0.5831967000849545,1.0,3818.0
009,6,35.0,3.0,f,f,0.49049570015631616,1.0,3833.0
009,6,36.0,2.0,d,d,0.5686495001427829,1.0,3847.0
009,6,37.0,1.0,s,s,0.6074691999237984,1.0,3860.0
009,6,38.0,0.0,a,a,0.9542129000183195,1.0,3870.0
009,6,39.0,1.0,s,s,0.7519692000932992,1.0,3882.0
009,6,40.0,2.0,d,d,0.411056499928236,1.0,3897.0
009,6,41.0,1.0,s,s,0.7398890000768006,1.0,3909.0
009,6,42.0,0.0,a,a,0.5549290000926703,1.0,3923.0
009,6,43.0,2.0,d,d,0.6318251001648605,1.0,3936.0
009,6,44.0,3.0,f,f,0.49743410013616085,1.0,3951.0
009,6,45.0,2.0,d,d,0.5142582000698894,1.0,3965.0
009,6,46.0,2.0,d,d,0.8156598000787199,1.0,3976.0
009,6,47.0,3.0,f,f,0.8754503999371082,1.0,3987.0
009,6,48.0,1.0,s,s,0.48439019988290966,1.0,4002.0
009,7,1.0,1.0,s,s,0.5568119999952614,1.0,4016.0
009,7,2.0,1.0,s,s,0.3911366998218,1.0,4032.0
009,7,3.0,1.0,s,s,0.3943155000451952,1.0,4048.0
009,7,4.0,3.0,f,f,0.4898085999302566,1.0,4063.0
009,7,5.0,0.0,a,a,0.547697399975732,1.0,4077.0
009,7,6.0,3.0,f,f,0.5817905999720097,1.0,4091.0
009,7,7.0,0.0,a,a,0.4401702000759542,1.0,4106.0
009,7,8.0,3.0,f,f,0.4605782001744956,1.0,4121.0
009,7,9.0,2.0,d,d,0.5068121999502182,1.0,4135.0
009,7,10.0,0.0,a,a,0.49974419991485775,1.0,4150.0
009,7,11.0,0.0,a,a,0.46640200004912913,1.0,4165.0
009,7,12.0,1.0,s,s,0.8320581000298262,1.0,4176.0
009,7,13.0,3.0,f,f,0.5943128000944853,1.0,4190.0
009,7,14.0,2.0,d,d,0.5196006998885423,1.0,4204.0
009,7,15.0,1.0,s,s,0.40860439999960363,1.0,4219.0
009,7,16.0,1.0,s,s,0.6620714999735355,1.0,4232.0
009,7,17.0,3.0,f,f,0.5301082001533359,1.0,4246.0
009,7,18.0,1.0,s,s,0.5233740999829024,1.0,4260.0
009,7,19.0,3.0,f,f,0.44871749985031784,1.0,4275.0
009,7,20.0,0.0,a,a,0.5821537000592798,1.0,4289.0
009,7,21.0,1.0,s,s,0.6168944998644292,1.0,4302.0
009,7,22.0,3.0,f,f,0.6966699999757111,1.0,4315.0
009,7,23.0,2.0,d,d,0.4972848000470549,1.0,4330.0
009,7,24.0,1.0,s,s,0.6019146000035107,1.0,4343.0
009,7,25.0,2.0,d,d,0.6501072000246495,1.0,4356.0
009,7,26.0,0.0,a,a,0.3793055999558419,1.0,4372.0
009,7,27.0,1.0,s,s,0.6039160001091659,1.0,4385.0
009,7,28.0,3.0,f,f,0.5261856000870466,1.0,4399.0
009,7,29.0,0.0,a,a,0.3470465000718832,1.0,4415.0
009,7,30.0,3.0,f,f,0.41967159998603165,1.0,4430.0
009,7,31.0,1.0,s,s,0.7134919001255184,1.0,4442.0
009,7,32.0,2.0,d,d,0.783375799888745,1.0,4454.0
009,7,33.0,0.0,a,a,0.3648930999916047,1.0,4470.0
009,7,34.0,1.0,s,s,0.572659800061956,1.0,4484.0
009,7,35.0,3.0,f,f,0.47904139989987016,1.0,4499.0
009,7,36.0,3.0,f,d,0.6048906999640167,0.0,4499.0
009,7,37.0,0.0,a,a,1.0004126999992877,1.0,4509.0
009,7,38.0,1.0,s,s,1.0942827998660505,1.0,4519.0
009,7,39.0,0.0,a,a,0.5542234000749886,1.0,4533.0
009,7,40.0,0.0,a,a,0.566110200015828,1.0,4547.0
009,7,41.0,0.0,a,a,0.46026029996573925,1.0,4562.0
009,7,42.0,0.0,a,a,0.7277424999047071,1.0,4574.0
009,7,43.0,3.0,f,f,0.6106209999416023,1.0,4587.0
009,7,44.0,2.0,d,d,0.5761108000297099,1.0,4601.0
009,7,45.0,0.0,a,a,0.4163863998837769,1.0,4616.0
009,7,46.0,3.0,f,f,0.5297145999502391,1.0,4630.0
009,7,47.0,0.0,a,a,0.4802429999690503,1.0,4645.0
009,7,48.0,3.0,f,f,0.8339204001240432,1.0,4656.0
009,8,1.0,3.0,f,f,0.47971159988082945,1.0,4671.0
009,8,2.0,2.0,d,d,0.3968436000868678,1.0,4687.0
009,8,3.0,0.0,a,a,0.46661730017513037,1.0,4702.0
009,8,4.0,1.0,s,s,0.38738169986754656,1.0,4718.0
009,8,5.0,2.0,d,d,0.5458830001298338,1.0,4732.0
009,8,6.0,0.0,a,a,0.39979409985244274,1.0,4748.0
009,8,7.0,3.0,f,f,0.513877100078389,1.0,4762.0
009,8,8.0,0.0,a,a,0.367686300072819,1.0,4778.0
009,8,9.0,2.0,d,d,0.4463829000014812,1.0,4793.0
009,8,10.0,1.0,s,s,0.5486787999980152,1.0,4807.0
009,8,11.0,3.0,f,f,0.5622250000014901,1.0,4821.0
009,8,12.0,0.0,a,a,0.40939419995993376,1.0,4836.0
009,8,13.0,3.0,f,f,0.5165422998834401,1.0,4850.0
009,8,14.0,2.0,d,d,0.5013997000642121,1.0,4864.0
009,8,15.0,0.0,a,a,0.6401242001447827,1.0,4877.0
009,8,16.0,1.0,s,s,0.5402819002047181,1.0,4891.0
009,8,17.0,2.0,d,d,0.5646538999862969,1.0,4905.0
009,8,18.0,0.0,a,a,0.4128632000647485,1.0,4920.0
009,8,19.0,3.0,f,f,0.48617950011976063,1.0,4935.0
009,8,20.0,0.0,a,a,0.4375209000427276,1.0,4950.0
009,8,21.0,2.0,d,d,0.5890407001134008,1.0,4964.0
009,8,22.0,1.0,s,s,0.5836459000129253,1.0,4978.0
009,8,23.0,3.0,f,f,0.48027990013360977,1.0,4993.0
009,8,24.0,0.0,a,a,0.31693860003724694,1.0,5009.0
009,8,25.0,3.0,f,f,0.717200200073421,1.0,5021.0
009,8,26.0,2.0,d,d,0.40802580001764,1.0,5036.0
009,8,27.0,0.0,a,a,0.6232637001667172,1.0,5049.0
009,8,28.0,1.0,s,s,0.7603880998212844,1.0,5061.0
009,8,29.0,2.0,d,d,0.5930609998758882,1.0,5075.0
009,8,30.0,0.0,a,a,0.42083590012043715,1.0,5090.0
009,8,31.0,3.0,f,f,0.5083705000579357,1.0,5104.0
009,8,32.0,0.0,a,a,0.3428046000190079,1.0,5120.0
009,8,33.0,2.0,d,d,0.4684121001046151,1.0,5135.0
009,8,34.0,1.0,s,s,0.4480930999852717,1.0,5150.0
009,8,35.0,3.0,f,f,0.4652680999133736,1.0,5165.0
009,8,36.0,0.0,a,a,0.4201947001274675,1.0,5180.0
009,8,37.0,3.0,f,f,0.4969502000603825,1.0,5195.0
009,8,38.0,2.0,d,d,0.4784757001325488,1.0,5210.0
009,8,39.0,0.0,a,a,0.5153882000595331,1.0,5224.0
009,8,40.0,1.0,s,d,0.45604849979281425,0.0,5224.0
009,8,41.0,2.0,d,d,0.6644309000112116,1.0,5237.0
009,8,42.0,0.0,a,a,0.499201400205493,1.0,5252.0
009,8,43.0,3.0,f,d,1.212111199973151,0.0,5252.0
009,8,44.0,0.0,a,a,0.5713679001200944,1.0,5266.0
009,8,45.0,2.0,d,d,0.9227875999640673,1.0,5276.0
009,8,46.0,1.0,s,s,0.6599148998502642,1.0,5289.0
009,8,47.0,3.0,f,f,0.49476590007543564,1.0,5304.0
009,8,48.0,0.0,a,a,0.44139629998244345,1.0,5319.0
009,awareness,,,,,y,,
009,awareness_guess,,,,,ffsda,,
010,1,1.0,0.0,a,a,0.5431359999347478,1.0,14.0
010,1,2.0,2.0,d,d,0.41120029985904694,1.0,29.0
010,1,3.0,1.0,s,s,0.3965398999862373,1.0,45.0
010,1,4.0,0.0,a,a,0.4049319999758154,1.0,60.0
010,1,5.0,3.0,f,f,0.444086299976334,1.0,75.0
010,1,6.0,1.0,s,s,0.45258219982497394,1.0,90.0
010,1,7.0,0.0,a,a,0.5091894001234323,1.0,104.0
010,1,8.0,1.0,s,s,0.35555519978515804,1.0,120.0
010,1,9.0,1.0,s,s,0.4169052999932319,1.0,135.0
010,1,10.0,0.0,a,a,0.3867839998565614,1.0,151.0
010,1,11.0,3.0,f,f,0.431275200098753,1.0,166.0
010,1,12.0,0.0,a,a,0.423375700134784,1.0,181.0
010,1,13.0,1.0,s,s,0.4103443999774754,1.0,196.0
010,1,14.0,2.0,d,d,0.4517130001913756,1.0,211.0
010,1,15.0,1.0,s,s,0.3740497000981122,1.0,227.0
010,1,16.0,0.0,a,a,0.4614784000441432,1.0,242.0
010,1,17.0,2.0,d,d,0.5399118999484926,1.0,256.0
010,1,18.0,1.0,s,s,0.34562509995885193,1.0,272.0
010,1,19.0,1.0,s,s,0.45512040005996823,1.0,287.0
010,1,20.0,1.0,s,s,0.31898760003969073,1.0,303.0
010,1,21.0,1.0,s,s,0.3551086001098156,1.0,319.0
010,1,22.0,3.0,f,f,0.41861370019614697,1.0,334.0
010,1,23.0,3.0,f,f,0.4398006000556052,1.0,349.0
010,1,24.0,0.0,a,a,0.3913826998323202,1.0,365.0
010,1,25.0,3.0,f,f,0.38547229999676347,1.0,381.0
010,1,26.0,2.0,d,d,0.4237874001264572,1.0,396.0
010,1,27.0,0.0,a,a,0.36521949991583824,1.0,412.0
010,1,28.0,1.0,s,s,0.36492169997654855,1.0,428.0
010,1,29.0,1.0,s,s,0.2997246999293566,1.0,445.0
010,1,30.0,0.0,a,a,0.40347720007412136,1.0,460.0
010,1,31.0,1.0,s,s,0.416650400031358,1.0,475.0
010,1,32.0,0.0,a,a,0.4328299998305738,1.0,490.0
010,1,33.0,2.0,d,d,0.4265360999852419,1.0,505.0
010,1,34.0,2.0,d,d,0.309115800075233,1.0,521.0
010,1,35.0,0.0,a,a,0.3767329999245703,1.0,537.0
010,1,36.0,1.0,s,s,0.4001594998408109,1.0,552.0
010,1,37.0,1.0,s,s,0.3840851001441479,1.0,568.0
010,1,38.0,0.0,a,a,0.4130910998210311,1.0,583.0
010,1,39.0,1.0,s,s,0.5017870001029223,1.0,597.0
010,1,40.0,2.0,d,d,0.3477050999645144,1.0,613.0
010,1,41.0,3.0,f,f,0.3368678002152592,1.0,629.0
010,1,42.0,0.0,a,a,0.4703544001094997,1.0,644.0
010,1,43.0,2.0,d,d,0.38070710003376007,1.0,660.0
010,1,44.0,0.0,a,a,0.5150476000271738,1.0,674.0
010,1,45.0,2.0,d,d,0.4413040999788791,1.0,689.0
010,1,46.0,0.0,a,a,0.40053500002250075,1.0,704.0
010,1,47.0,3.0,f,f,0.4676818000152707,1.0,719.0
010,1,48.0,2.0,d,d,0.40017410018481314,1.0,734.0
010,2,1.0,0.0,a,a,0.5708522999193519,1.0,748.0
010,2,2.0,2.0,d,d,0.45678550004959106,1.0,763.0
010,2,3.0,3.0,f,f,0.35143189993686974,1.0,779.0
010,2,4.0,1.0,s,s,0.32896830001845956,1.0,795.0
010,2,5.0,0.0,a,a,0.31777739990502596,1.0,811.0
010,2,6.0,3.0,f,f,0.34647749993018806,1.0,827.0
010,2,7.0,2.0,d,d,0.31648599985055625,1.0,843.0
010,2,8.0,1.0,s,s,0.3200139000546187,1.0,859.0
010,2,9.0,3.0,f,f,0.3034137999638915,1.0,875.0
010,2,10.0,0.0,a,a,0.3570552000310272,1.0,891.0
010,2,11.0,1.0,s,s,0.29571199999190867,1.0,908.0
010,2,12.0,2.0,d,d,0.43000590009614825,1.0,923.0
010,2,13.0,0.0,a,a,0.3582638001535088,1.0,939.0
010,2,14.0,2.0,d,d,0.31353070004843175,1.0,955.0
010,2,15.0,3.0,f,f,0.31890180008485913,1.0,971.0
010,2,16.0,1.0,s,s,0.30781419994309545,1.0,987.0
010,2,17.0,0.0,a,a,0.30290809995494783,1.0,1003.0
010,2,18.0,3.0,f,f,0.33244109991937876,1.0,1019.0
010,2,19.0,2.0,d,d,0.2805351000279188,1.0,1036.0
010,2,20.0,1.0,s,s,0.3143744000699371,1.0,1052.0
010,2,21.0,3.0,f,f,0.3105308001395315,1.0,1068.0
010,2,22.0,0.0,a,a,0.3564867000095546,1.0,1084.0
010,2,23.0,1.0,s,s,0.32767400005832314,1.0,1100.0
010,2,24.0,2.0,d,d,0.29256179998628795,1.0,1117.0
010,2,25.0,0.0,a,a,0.315522100077942,1.0,1133.0
010,2,26.0,2.0,d,d,0.3134226000402123,1.0,1149.0
010,2,27.0,3.0,f,f,0.3128496001008898,1.0,1165.0
010,2,28.0,1.0,s,s,0.3088111001998186,1.0,1181.0
010,2,29.0,0.0,a,a,0.32165440008975565,1.0,1197.0
010,2,30.0,3.0,f,f,0.3079673999454826,1.0,1213.0
010,2,31.0,2.0,d,d,0.3055839000735432,1.0,1229.0
010,2,32.0,1.0,s,s,0.3022384000942111,1.0,1245.0
010,2,33.0,3.0,f,f,0.33891779999248683,1.0,1261.0
010,2,34.0,0.0,a,a,0.334011800121516,1.0,1277.0
010,2,35.0,1.0,s,s,0.35645380010828376,1.0,1293.0
010,2,36.0,2.0,d,d,0.3454203999135643,1.0,1309.0
010,2,37.0,0.0,a,a,0.2985752001404762,1.0,1326.0
010,2,38.0,2.0,d,f,0.32152149989269674,0.0,1326.0
010,2,39.0,3.0,f,f,0.37534909998066723,1.0,1342.0
010,2,40.0,1.0,s,s,0.3161618001759052,1.0,1358.0
010,2,41.0,0.0,a,a,0.28310139989480376,1.0,1375.0
010,2,42.0,3.0,f,f,0.3990981001406908,1.0,1391.0
010,2,43.0,2.0,d,d,0.3298794999718666,1.0,1407.0
010,2,44.0,1.0,s,s,0.3223342001438141,1.0,1423.0
010,2,45.0,3.0,f,f,0.41582820005714893,1.0,1438.0
010,2,46.0,0.0,a,a,0.37056319997645915,1.0,1454.0
010,2,47.0,1.0,s,s,0.3669746997766197,1.0,1470.0
010,2,48.0,2.0,d,d,0.35623579984530807,1.0,1486.0
010,3,1.0,0.0,a,a,0.43599669984541833,1.0,1501.0
010,3,2.0,2.0,d,d,0.5174332000315189,1.0,1515.0
010,3,3.0,3.0,f,f,0.4316704000812024,1.0,1530.0
010,3,4.0,1.0,s,s,0.3563490998931229,1.0,1546.0
010,3,5.0,0.0,a,a,0.34605160006321967,1.0,1562.0
010,3,6.0,3.0,f,f,0.33203799999319017,1.0,1578.0
010,3,7.0,2.0,d,d,0.28778399992734194,1.0,1595.0
010,3,8.0,1.0,s,s,0.30026470008306205,1.0,1611.0
010,3,9.0,3.0,f,f,0.31243259995244443,1.0,1627.0
010,3,10.0,0.0,a,a,0.31829739990644157,1.0,1643.0
010,3,11.0,1.0,s,s,0.33833809988573194,1.0,1659.0
010,3,12.0,2.0,d,d,0.26347680017352104,1.0,1676.0
010,3,13.0,0.0,a,a,0.31869390001520514,1.0,1692.0
010,3,14.0,2.0,d,d,0.30606089998036623,1.0,1708.0
010,3,15.0,3.0,f,f,0.3341421999502927,1.0,1724.0
010,3,16.0,1.0,s,s,0.26484060008078814,1.0,1741.0
010,3,17.0,0.0,a,a,0.3252002000808716,1.0,1757.0
010,3,18.0,3.0,f,f,0.33785000001080334,1.0,1773.0
010,3,19.0,2.0,d,d,0.2771627998445183,1.0,1790.0
010,3,20.0,1.0,s,s,0.25836979993619025,1.0,1807.0
010,3,21.0,3.0,f,f,0.32773540006019175,1.0,1823.0
010,3,22.0,0.0,a,a,0.6593339000828564,1.0,1836.0
010,3,23.0,1.0,s,s,0.5440581999719143,1.0,1850.0
010,3,24.0,2.0,d,d,0.5064992997795343,1.0,1864.0
010,3,25.0,0.0,a,a,0.4501324000302702,1.0,1879.0
010,3,26.0,2.0,d,d,0.5253615998663008,1.0,1893.0
010,3,27.0,3.0,f,f,0.6903204000554979,1.0,1906.0
010,3,28.0,1.0,s,s,0.3580360999330878,1.0,1922.0
010,3,29.0,0.0,a,a,0.38526739994995296,1.0,1938.0
010,3,30.0,3.0,f,f,0.35870129987597466,1.0,1954.0
010,3,31.0,2.0,d,d,0.3312730002216995,1.0,1970.0
010,3,32.0,1.0,s,s,0.3644479000940919,1.0,1986.0
010,3,33.0,3.0,f,f,0.3608294001314789,1.0,2002.0
010,3,34.0,0.0,a,a,0.4796084000263363,1.0,2017.0
010,3,35.0,1.0,s,s,0.3418323998339474,1.0,2033.0
010,3,36.0,2.0,d,d,0.3282725000753999,1.0,2049.0
010,3,37.0,0.0,a,a,0.4276067998725921,1.0,2064.0
010,3,38.0,2.0,d,d,0.3309017999563366,1.0,2080.0
010,3,39.0,3.0,f,f,0.4047896999400109,1.0,2095.0
010,3,40.0,1.0,s,s,0.32214049994945526,1.0,2111.0
010,3,41.0,0.0,a,a,0.3014932000078261,1.0,2127.0
010,3,42.0,3.0,f,f,0.39054930000565946,1.0,2143.0
010,3,43.0,2.0,d,d,0.3025528001599014,1.0,2159.0
010,3,44.0,1.0,s,s,0.35575319989584386,1.0,2175.0
010,3,45.0,3.0,f,f,0.33518870011903346,1.0,2191.0
010,3,46.0,0.0,a,a,0.3967522999737412,1.0,2207.0
010,3,47.0,1.0,s,s,0.3665764001198113,1.0,2223.0
010,3,48.0,2.0,d,d,0.42566050007008016,1.0,2238.0
010,4,1.0,0.0,a,a,0.8961944999173284,1.0,2249.0
010,4,2.0,2.0,d,d,0.34410860016942024,1.0,2265.0
010,4,3.0,3.0,f,f,0.4033083999529481,1.0,2280.0
010,4,4.0,1.0,s,a,0.35469879978336394,0.0,2280.0
010,4,5.0,0.0,a,a,0.40020970022305846,1.0,2295.0
010,4,6.0,3.0,f,f,0.35495899990200996,1.0,2311.0
010,4,7.0,2.0,d,d,0.2965661999769509,1.0,2328.0
010,4,8.0,1.0,s,s,0.30382120003923774,1.0,2344.0
010,4,9.0,3.0,f,f,0.350448900135234,1.0,2360.0
010,4,10.0,0.0,a,a,0.4905362999998033,1.0,2375.0
010,4,11.0,1.0,s,s,0.29138130019418895,1.0,2392.0
010,4,12.0,2.0,d,d,0.2634771999437362,1.0,2409.0
010,4,13.0,0.0,a,a,0.36775750014930964,1.0,2425.0
010,4,14.0,2.0,d,d,0.32719189999625087,1.0,2441.0
010,4,15.0,3.0,f,f,0.3653851000126451,1.0,2457.0
010,4,16.0,1.0,s,s,0.3360811001621187,1.0,2473.0
010,4,17.0,0.0,a,a,0.3397930001374334,1.0,2489.0
010,4,18.0,3.0,f,f,0.4361100001260638,1.0,2504.0
010,4,19.0,2.0,d,d,0.31475649983622134,1.0,2520.0
010,4,20.0,1.0,s,s,0.29795850021764636,1.0,2537.0
010,4,21.0,3.0,f,f,0.3172560001257807,1.0,2553.0
010,4,22.0,0.0,a,a,0.319506699917838,1.0,2569.0
010,4,23.0,1.0,s,s,0.30657340004108846,1.0,2585.0
010,4,24.0,2.0,d,d,0.3277910999022424,1.0,2601.0
010,4,25.0,0.0,a,a,0.34718090016394854,1.0,2617.0
010,4,26.0,2.0,d,d,0.507774000056088,1.0,2631.0
010,4,27.0,3.0,f,f,0.3476380999200046,1.0,2647.0
010,4,28.0,1.0,s,s,0.4324953998439014,1.0,2662.0
010,4,29.0,0.0,a,a,0.2869941999670118,1.0,2679.0
010,4,30.0,3.0,f,f,0.37066580005921423,1.0,2695.0
010,4,31.0,2.0,d,d,0.3411197999957949,1.0,2711.0
010,4,32.0,1.0,s,s,0.287254799855873,1.0,2728.0
010,4,33.0,3.0,f,f,0.30047779995948076,1.0,2744.0
010,4,34.0,0.0,a,a,0.3819305000361055,1.0,2760.0
010,4,35.0,1.0,s,s,0.2587544000707567,1.0,2777.0
010,4,36.0,2.0,d,d,0.29077950003556907,1.0,2794.0
010,4,37.0,0.0,a,a,0.3338264001067728,1.0,2810.0
010,4,38.0,2.0,d,d,0.4462935999035835,1.0,2825.0
010,4,39.0,3.0,f,f,0.3195433998480439,1.0,2841.0
010,4,40.0,1.0,s,s,0.31333169993013144,1.0,2857.0
010,4,41.0,0.0,a,a,0.2823249001521617,1.0,2874.0
010,4,42.0,3.0,f,f,0.35644160001538694,1.0,2890.0
010,4,43.0,2.0,d,d,0.30033829994499683,1.0,2906.0
010,4,44.0,1.0,s,s,0.2919283998198807,1.0,2923.0
010,4,45.0,3.0,f,f,0.34651220007799566,1.0,2939.0
010,4,46.0,0.0,a,a,0.35813349997624755,1.0,2955.0
010,4,47.0,1.0,s,s,0.30449759983457625,1.0,2971.0
010,4,48.0,2.0,d,d,0.3148177000693977,1.0,2987.0
010,5,1.0,0.0,a,a,0.737813499988988,1.0,2999.0
010,5,2.0,2.0,d,d,0.5176002001389861,1.0,3013.0
010,5,3.0,3.0,f,f,0.40296719991602004,1.0,3028.0
010,5,4.0,1.0,s,s,0.3704039000440389,1.0,3044.0
010,5,5.0,0.0,a,a,0.3281900999136269,1.0,3060.0
010,5,6.0,3.0,f,f,0.961757600074634,1.0,3070.0
010,5,7.0,2.0,d,d,0.2910970998927951,1.0,3087.0
010,5,8.0,1.0,s,s,0.40984410000965,1.0,3102.0
010,5,9.0,3.0,f,f,0.45492960000410676,1.0,3117.0
010,5,10.0,0.0,a,a,0.3636117000132799,1.0,3133.0
010,5,11.0,1.0,s,s,0.44690959993749857,1.0,3148.0
010,5,12.0,2.0,d,d,0.3276200999971479,1.0,3164.0
010,5,13.0,0.0,a,a,0.3428285999689251,1.0,3180.0
010,5,14.0,2.0,d,d,0.3430109000764787,1.0,3196.0
010,5,15.0,3.0,f,f,0.36096410010941327,1.0,3212.0
010,5,16.0,1.0,s,s,0.3005808999296278,1.0,3228.0
010,5,17.0,0.0,a,a,0.3010108000598848,1.0,3244.0
010,5,18.0,3.0,f,d,0.2947652000002563,0.0,3244.0
010,5,19.0,2.0,d,d,0.44275699998252094,1.0,3259.0
010,5,20.0,1.0,s,s,0.3561537000350654,1.0,3275.0
010,5,21.0,3.0,f,f,0.3381867001298815,1.0,3291.0
010,5,22.0,0.0,a,a,0.3094604001380503,1.0,3307.0
010,5,23.0,1.0,s,s,0.3134892999660224,1.0,3323.0
010,5,24.0,2.0,d,d,0.3327927999198437,1.0,3339.0
010,5,25.0,0.0,a,a,0.36028030002489686,1.0,3355.0
010,5,26.0,2.0,d,d,0.4799035999458283,1.0,3370.0
010,5,27.0,3.0,f,f,0.3262406000867486,1.0,3386.0
010,5,28.0,1.0,s,s,0.321124300127849,1.0,3402.0
010,5,29.0,0.0,a,a,0.3631146000698209,1.0,3418.0
010,5,30.0,3.0,f,f,0.3349255998618901,1.0,3434.0
010,5,31.0,2.0,d,d,0.37937829992733896,1.0,3450.0
010,5,32.0,1.0,s,s,0.2943667999934405,1.0,3467.0
010,5,33.0,3.0,f,f,0.44519819994457066,1.0,3482.0
010,5,34.0,0.0,a,a,0.3394675999879837,1.0,3498.0
010,5,35.0,1.0,s,s,0.28523509996011853,1.0,3515.0
010,5,36.0,2.0,d,d,0.30207099998369813,1.0,3531.0
010,5,37.0,0.0,a,a,0.35538990003988147,1.0,3547.0
010,5,38.0,2.0,d,d,0.4717588000930846,1.0,3562.0
010,5,39.0,3.0,f,f,0.31933019985444844,1.0,3578.0
010,5,40.0,1.0,s,d,0.3728436001110822,0.0,3578.0
010,5,41.0,0.0,a,a,0.46812700014561415,1.0,3593.0
010,5,42.0,3.0,f,f,0.4429099000990391,1.0,3608.0
010,5,43.0,2.0,d,d,0.326381100108847,1.0,3624.0
010,5,44.0,1.0,s,s,0.3377086999826133,1.0,3640.0
010,5,45.0,3.0,f,f,0.3556129999924451,1.0,3656.0
010,5,46.0,0.0,a,a,0.3688630999531597,1.0,3672.0
010,5,47.0,1.0,s,s,0.2919069000054151,1.0,3689.0
010,5,48.0,2.0,d,d,0.29602520004846156,1.0,3706.0
010,6,1.0,3.0,f,f,0.7013246000278741,1.0,3718.0
010,6,2.0,3.0,f,f,0.4673514000605792,1.0,3733.0
010,6,3.0,1.0,s,d,0.373797400156036,0.0,3733.0
010,6,4.0,2.0,d,d,0.31680650007911026,1.0,3749.0
010,6,5.0,2.0,d,d,0.5179107000585645,1.0,3763.0
010,6,6.0,3.0,f,f,0.37845130008645356,1.0,3779.0
010,6,7.0,3.0,f,f,0.31726129981689155,1.0,3795.0
010,6,8.0,3.0,f,f,0.3011996999848634,1.0,3811.0
010,6,9.0,2.0,d,d,0.5199646998662502,1.0,3825.0
010,6,10.0,1.0,s,s,0.3231095001101494,1.0,3841.0
010,6,11.0,1.0,s,s,0.2640800999943167,1.0,3858.0
010,6,12.0,1.0,s,s,0.34070830000564456,1.0,3874.0
010,6,13.0,2.0,d,d,0.3803439000621438,1.0,3890.0
010,6,14.0,1.0,s,s,0.3786731001455337,1.0,3906.0
010,6,15.0,0.0,a,a,0.3886506000999361,1.0,3922.0
010,6,16.0,1.0,s,s,0.3015237001236528,1.0,3938.0
010,6,17.0,3.0,f,f,0.5322441998869181,1.0,3952.0
010,6,18.0,3.0,f,f,0.2921151998452842,1.0,3969.0
010,6,19.0,2.0,d,d,0.40570189990103245,1.0,3984.0
010,6,20.0,0.0,a,a,0.4380138001870364,1.0,3999.0
010,6,21.0,1.0,s,s,0.3416828999761492,1.0,4015.0
010,6,22.0,2.0,d,d,0.3623645999468863,1.0,4031.0
010,6,23.0,1.0,s,s,0.3919913999270648,1.0,4047.0
010,6,24.0,1.0,s,s,0.30454490007832646,1.0,4063.0
010,6,25.0,3.0,f,s,0.24148740014061332,0.0,4063.0
010,6,26.0,2.0,d,d,0.40269539994187653,1.0,4078.0
010,6,27.0,0.0,a,a,0.3590675999876112,1.0,4094.0
010,6,28.0,3.0,f,f,0.34281860012561083,1.0,4110.0
010,6,29.0,1.0,s,s,0.36697379988618195,1.0,4126.0
010,6,30.0,2.0,d,d,0.314708000048995,1.0,4142.0
010,6,31.0,2.0,d,d,0.3684006000403315,1.0,4158.0
010,6,32.0,0.0,a,a,0.38349479995667934,1.0,4174.0
010,6,33.0,1.0,s,s,0.29332339996472,1.0,4191.0
010,6,34.0,3.0,f,f,0.3583588001783937,1.0,4207.0
010,6,35.0,3.0,f,f,0.254208599915728,1.0,4224.0
010,6,36.0,0.0,a,a,0.36644030013121665,1.0,4240.0
010,6,37.0,3.0,f,f,0.37559240008704364,1.0,4256.0
010,6,38.0,3.0,f,f,0.3444758001714945,1.0,4272.0
010,6,39.0,1.0,s,s,0.3830148000270128,1.0,4288.0
010,6,40.0,3.0,f,s,0.3110354000236839,0.0,4288.0
010,6,41.0,1.0,s,s,0.4411828999873251,1.0,4303.0
010,6,42.0,2.0,d,d,0.3977258999366313,1.0,4319.0
010,6,43.0,1.0,s,s,0.4311265000142157,1.0,4334.0
010,6,44.0,2.0,d,d,0.5204428001306951,1.0,4348.0
010,6,45.0,2.0,d,d,0.3534974998328835,1.0,4364.0
010,6,46.0,1.0,s,s,0.47377220005728304,1.0,4379.0
010,6,47.0,0.0,a,a,0.34445709991268814,1.0,4395.0
010,6,48.0,0.0,a,a,0.3518942999653518,1.0,4411.0
010,7,1.0,2.0,d,d,0.6740381000563502,1.0,4424.0
010,7,2.0,2.0,d,d,0.3032094999216497,1.0,4440.0
010,7,3.0,3.0,f,f,0.41694560018368065,1.0,4455.0
010,7,4.0,0.0,a,a,0.4004695999901742,1.0,4470.0
010,7,5.0,1.0,s,a,0.29636589996516705,0.0,4470.0
010,7,6.0,1.0,s,s,0.311471400083974,1.0,4486.0
010,7,7.0,0.0,a,a,0.3536655998323113,1.0,4502.0
010,7,8.0,1.0,s,s,0.39743279991671443,1.0,4518.0
010,7,9.0,2.0,d,d,0.2850254999939352,1.0,4535.0
010,7,10.0,1.0,s,s,0.39554319996386766,1.0,4551.0
010,7,11.0,0.0,a,a,0.35051129991188645,1.0,4567.0
010,7,12.0,1.0,s,s,0.31766840000636876,1.0,4583.0
010,7,13.0,0.0,a,a,0.35373019985854626,1.0,4599.0
010,7,14.0,2.0,d,d,0.34561600000597537,1.0,4615.0
010,7,15.0,1.0,s,s,0.36685300013050437,1.0,4631.0
010,7,16.0,2.0,d,d,0.3990416000597179,1.0,4647.0
010,7,17.0,3.0,f,f,0.46009479998610914,1.0,4662.0
010,7,18.0,1.0,s,s,0.3418443000409752,1.0,4678.0
010,7,19.0,1.0,s,s,0.3263855001423508,1.0,4694.0
010,7,20.0,1.0,s,s,0.27310520014725626,1.0,4711.0
010,7,21.0,2.0,d,d,0.3915373000781983,1.0,4727.0
010,7,22.0,3.0,f,f,0.3505309000611305,1.0,4743.0
010,7,23.0,0.0,a,a,0.4120404999703169,1.0,4758.0
010,7,24.0,1.0,s,s,0.3204000999685377,1.0,4774.0
010,7,25.0,1.0,s,s,0.33815100020729005,1.0,4790.0
010,7,26.0,1.0,s,s,0.3382085000630468,1.0,4806.0
010,7,27.0,2.0,d,d,0.3525990000925958,1.0,4822.0
010,7,28.0,1.0,s,a,0.46263540000654757,0.0,4822.0
010,7,29.0,1.0,s,s,0.410036199958995,1.0,4837.0
010,7,30.0,2.0,d,d,0.3785286000929773,1.0,4853.0
010,7,31.0,0.0,a,a,0.4353714999742806,1.0,4868.0
010,7,32.0,0.0,a,a,0.3400053000077605,1.0,4884.0
010,7,33.0,0.0,a,a,0.36081850016489625,1.0,4900.0
010,7,34.0,3.0,f,f,0.4395914999768138,1.0,4915.0
010,7,35.0,3.0,f,f,0.37868180009536445,1.0,4931.0
010,7,36.0,3.0,f,f,0.32701439992524683,1.0,4947.0
010,7,37.0,1.0,s,s,0.3469621001277119,1.0,4963.0
010,7,38.0,3.0,f,f,0.36941209994256496,1.0,4979.0
010,7,39.0,2.0,d,f,0.36789099988527596,0.0,4979.0
010,7,40.0,0.0,a,a,0.39598020003177226,1.0,4995.0
010,7,41.0,1.0,s,s,0.3677741999272257,1.0,5011.0
010,7,42.0,1.0,s,s,0.30310390004888177,1.0,5027.0
010,7,43.0,0.0,a,a,0.4080513999797404,1.0,5042.0
010,7,44.0,2.0,d,d,0.34263379988260567,1.0,5058.0
010,7,45.0,2.0,d,d,0.3104660001117736,1.0,5074.0
010,7,46.0,2.0,d,d,0.30887220008298755,1.0,5090.0
010,7,47.0,3.0,f,f,0.38732759980484843,1.0,5106.0
010,7,48.0,3.0,f,f,0.25983419991098344,1.0,5123.0
010,8,1.0,3.0,f,f,0.6453386000357568,1.0,5136.0
010,8,2.0,2.0,d,d,0.32520720013417304,1.0,5152.0
010,8,3.0,0.0,a,s,0.36453169980086386,0.0,5152.0
010,8,4.0,1.0,s,s,0.31175550003536046,1.0,5168.0
010,8,5.0,2.0,d,d,0.3269553000573069,1.0,5184.0
010,8,6.0,0.0,a,a,0.3642090999055654,1.0,5200.0
010,8,7.0,3.0,f,f,0.3640363998711109,1.0,5216.0
010,8,8.0,0.0,a,a,0.37783239991404116,1.0,5232.0
010,8,9.0,2.0,d,d,0.3523060998413712,1.0,5248.0
010,8,10.0,1.0,s,s,0.28172239987179637,1.0,5265.0
010,8,11.0,3.0,f,f,0.36408500000834465,1.0,5281.0
010,8,12.0,0.0,a,a,0.3563010001089424,1.0,5297.0
010,8,13.0,3.0,f,f,0.4820755999535322,1.0,5312.0
010,8,14.0,2.0,d,d,0.41164460009895265,1.0,5327.0
010,8,15.0,0.0,a,a,0.3653214001096785,1.0,5343.0
010,8,16.0,1.0,s,s,0.3824986000545323,1.0,5359.0
010,8,17.0,2.0,d,d,0.30046450020745397,1.0,5375.0
010,8,18.0,0.0,a,a,0.32123999996110797,1.0,5391.0
010,8,19.0,3.0,f,f,0.3820164001081139,1.0,5407.0
010,8,20.0,0.0,a,a,0.3930097999982536,1.0,5423.0
010,8,21.0,2.0,d,d,0.31971050007268786,1.0,5439.0
010,8,22.0,1.0,s,s,0.3115882999263704,1.0,5455.0
010,8,23.0,3.0,f,f,0.46487989998422563,1.0,5470.0
010,8,24.0,0.0,a,a,0.34310060017742217,1.0,5486.0
010,8,25.0,3.0,f,f,0.3518718001432717,1.0,5502.0
010,8,26.0,2.0,d,d,0.3016194000374526,1.0,5518.0
010,8,27.0,0.0,a,a,0.3480134999845177,1.0,5534.0
010,8,28.0,1.0,s,s,0.35779620008543134,1.0,5550.0
010,8,29.0,2.0,d,d,0.35045530018396676,1.0,5566.0
010,8,30.0,0.0,a,a,0.3375649999361485,1.0,5582.0
010,8,31.0,3.0,f,f,0.39974080002866685,1.0,5598.0
010,8,32.0,0.0,a,a,0.40727950003929436,1.0,5613.0
010,8,33.0,2.0,d,d,0.37135370005853474,1.0,5629.0
010,8,34.0,1.0,s,a,0.3407313998322934,0.0,5629.0
010,8,35.0,3.0,f,f,0.3852530000731349,1.0,5645.0
010,8,36.0,0.0,a,a,0.3374317998532206,1.0,5661.0
010,8,37.0,3.0,f,f,0.5365907999221236,1.0,5675.0
010,8,38.0,2.0,d,d,0.4067720000166446,1.0,5690.0
010,8,39.0,0.0,a,a,0.31921020010486245,1.0,5706.0
010,8,40.0,1.0,s,s,0.42962029995396733,1.0,5721.0
010,8,41.0,2.0,d,d,0.3911187001504004,1.0,5737.0
010,8,42.0,0.0,a,a,0.347722299862653,1.0,5753.0
010,8,43.0,3.0,f,f,0.317369099939242,1.0,5769.0
010,8,44.0,0.0,a,a,0.39038649993017316,1.0,5785.0
010,8,45.0,2.0,d,d,0.3688096001278609,1.0,5801.0
010,8,46.0,1.0,s,s,0.3661530001554638,1.0,5817.0
010,8,47.0,3.0,f,f,0.36036689998582006,1.0,5833.0
010,8,48.0,0.0,a,a,0.30586640001274645,1.0,5849.0
010,awareness,,,,,n,,
010,awareness_guess,,,,,affssda,,
011,1,1.0,3.0,f,f,0.41872800001874566,1.0,15.0
011,1,2.0,2.0,d,d,0.3159922999329865,1.0,31.0
011,1,3.0,3.0,f,f,0.43411699985153973,1.0,46.0
011,1,4.0,2.0,d,f,0.34432350005954504,0.0,46.0
011,1,5.0,3.0,f,f,0.5898617000784725,1.0,60.0
011,1,6.0,3.0,f,f,0.41070670005865395,1.0,75.0
011,1,7.0,0.0,a,a,0.41486280015669763,1.0,90.0
011,1,8.0,2.0,d,d,0.5158944998402148,1.0,104.0
011,1,9.0,3.0,f,f,0.7017317002173513,1.0,116.0
011,1,10.0,1.0,s,s,0.6052709000650793,1.0,129.0
011,1,11.0,1.0,s,s,0.5013448998797685,1.0,143.0
011,1,12.0,2.0,d,d,0.42345359991304576,1.0,158.0
011,1,13.0,0.0,a,a,0.43905899999663234,1.0,173.0
011,1,14.0,1.0,s,s,0.40441370010375977,1.0,188.0
011,1,15.0,0.0,a,a,0.5589044999796897,1.0,202.0
011,1,16.0,1.0,s,s,0.37301870016381145,1.0,218.0
011,1,17.0,3.0,f,f,0.44613509997725487,1.0,233.0
011,1,18.0,1.0,s,s,0.4837131998501718,1.0,248.0
011,1,19.0,3.0,f,f,0.4881799998693168,1.0,263.0
011,1,20.0,1.0,s,s,0.40061990008689463,1.0,278.0
011,1,21.0,2.0,d,d,0.5787271000444889,1.0,292.0
011,1,22.0,1.0,s,s,0.43578750011511147,1.0,307.0
011,1,23.0,3.0,f,f,0.5568959999363869,1.0,321.0
011,1,24.0,1.0,s,s,0.499377999920398,1.0,336.0
011,1,25.0,0.0,a,a,0.43558460008352995,1.0,351.0
011,1,26.0,3.0,f,f,0.4636475997976959,1.0,366.0
011,1,27.0,1.0,s,s,0.3869723998941481,1.0,382.0
011,1,28.0,2.0,d,d,0.3868296998552978,1.0,398.0
011,1,29.0,3.0,f,f,0.5747362000402063,1.0,412.0
011,1,30.0,0.0,a,a,0.6222411000635475,1.0,425.0
011,1,31.0,0.0,a,a,0.5360552999190986,1.0,439.0
011,1,32.0,3.0,f,f,0.44206799985840917,1.0,454.0
011,1,33.0,3.0,f,f,0.5897565002087504,1.0,468.0
011,1,34.0,0.0,a,a,0.561053000157699,1.0,482.0
011,1,35.0,2.0,d,d,0.5936263999901712,1.0,496.0
011,1,36.0,0.0,a,a,0.4444762000348419,1.0,511.0
011,1,37.0,3.0,f,f,0.36234370013698936,1.0,527.0
011,1,38.0,2.0,d,d,0.4998851001728326,1.0,542.0
011,1,39.0,0.0,a,a,0.3297935000155121,1.0,558.0
011,1,40.0,1.0,s,d,0.5535836999770254,0.0,558.0
011,1,41.0,1.0,s,s,0.14240220002830029,1.0,576.0
011,1,42.0,2.0,d,d,0.4552172999829054,1.0,591.0
011,1,43.0,0.0,a,a,0.5537525000981987,1.0,605.0
011,1,44.0,3.0,f,f,0.45225000008940697,1.0,620.0
011,1,45.0,0.0,a,a,0.3832363998517394,1.0,636.0
011,1,46.0,2.0,d,d,0.431821099948138,1.0,651.0
011,1,47.0,0.0,a,a,0.33597429981455207,1.0,667.0
011,1,48.0,2.0,d,d,0.46335559990257025,1.0,682.0
011,2,1.0,0.0,a,a,0.4697647001594305,1.0,697.0
011,2,2.0,2.0,d,d,0.3563104998320341,1.0,713.0
011,2,3.0,3.0,f,f,0.2651954998727888,1.0,730.0
011,2,4.0,1.0,s,s,0.42412069998681545,1.0,745.0
011,2,5.0,0.0,a,a,0.3233276999089867,1.0,761.0
011,2,6.0,3.0,f,f,0.437370500061661,1.0,776.0
011,2,7.0,2.0,d,d,0.3814805999863893,1.0,792.0
011,2,8.0,1.0,s,s,0.5495250998064876,1.0,806.0
011,2,9.0,3.0,f,f,0.37581560015678406,1.0,822.0
011,2,10.0,0.0,a,a,0.46631970000453293,1.0,837.0
011,2,11.0,1.0,s,s,0.4623726001009345,1.0,852.0
011,2,12.0,2.0,d,d,0.2976899999193847,1.0,869.0
011,2,13.0,0.0,a,a,0.3667118998710066,1.0,885.0
011,2,14.0,2.0,d,d,0.4331541999708861,1.0,900.0
011,2,15.0,3.0,f,f,0.366044299909845,1.0,916.0
011,2,16.0,1.0,s,s,0.4799726000055671,1.0,931.0
011,2,17.0,0.0,a,a,0.4596134000457823,1.0,946.0
011,2,18.0,3.0,f,f,0.38950400007888675,1.0,962.0
011,2,19.0,2.0,d,d,0.35558400000445545,1.0,978.0
011,2,20.0,1.0,s,s,0.5203881999477744,1.0,992.0
011,2,21.0,3.0,f,f,0.35034629981964827,1.0,1008.0
011,2,22.0,0.0,a,a,0.4826372000388801,1.0,1023.0
011,2,23.0,1.0,s,s,0.39765299996361136,1.0,1039.0
011,2,24.0,2.0,d,d,0.3177865999750793,1.0,1055.0
011,2,25.0,0.0,a,a,0.39676249981857836,1.0,1071.0
011,2,26.0,2.0,d,d,0.4246300000231713,1.0,1086.0
011,2,27.0,3.0,f,f,0.3364855998661369,1.0,1102.0
011,2,28.0,1.0,s,s,0.423986200010404,1.0,1117.0
011,2,29.0,0.0,a,a,0.3097232999280095,1.0,1133.0
011,2,30.0,3.0,f,f,0.3539760001003742,1.0,1149.0
